condition_file,message_to_show,repN_wm,repN_single,repN_break,dimension,rot_type,angle,mirror,wm,pair_id,obj_id,orientation1,orientation2,image_path_1,image_path_2,marker_id,correctAns,block_loop_main.thisRepN,block_loop_main.thisTrialN,block_loop_main.thisN,block_loop_main.thisIndex,simu_trials_loop.thisRepN,simu_trials_loop.thisTrialN,simu_trials_loop.thisN,simu_trials_loop.thisIndex,wm_trials_loop.thisRepN,wm_trials_loop.thisTrialN,wm_trials_loop.thisN,wm_trials_loop.thisIndex,block_loop_3dd.thisRepN,block_loop_3dd.thisTrialN,block_loop_3dd.thisN,block_loop_3dd.thisIndex,first_3Dd_wm.thisRepN,first_3Dd_wm.thisTrialN,first_3Dd_wm.thisN,first_3Dd_wm.thisIndex,thisRow.t,notes,start.started,text_start.started,key_resp_start.started,start.stopped,key_resp_start.keys,key_resp_start.rt,key_resp_start.duration,instructions.started,key_resp_12.started,image_8.started,instructions.stopped,key_resp_12.keys,key_resp_12.rt,key_resp_12.duration,instructions_2.started,image_9.started,key_resp_20.started,instructions_2.stopped,key_resp_20.keys,key_resp_20.rt,key_resp_20.duration,instructions_3.started,image_10.started,key_resp_21.started,instructions_3.stopped,key_resp_21.keys,key_resp_21.rt,key_resp_21.duration,before_block_instr.started,text_13.started,key_resp_7.started,before_block_instr.stopped,key_resp_7.keys,key_resp_7.rt,key_resp_7.duration,routine_wm.started,text_4.started,img1.started,text_4.stopped,img1.stopped,text_5.started,text_5.stopped,img2.started,key_resp_3.started,routine_wm.stopped,key_resp_3.keys,key_resp_3.corr,key_resp_3.rt,key_resp_3.duration,vividness.started,image_vivid.started,key_resp_vivid_slider_control.started,vividness.stopped,vivid_response,key_resp_vivid_slider_control.keys,key_resp_vivid_slider_control.rt,key_resp_vivid_slider_control.duration,ITI.started,text_2.started,ITI.stopped,image_vivid.stopped,key_resp_vivid_slider_control.stopped,text_2.stopped,strat.started,image_strat.started,key_resp_strat_control.started,strat.stopped,strategy_response,key_resp_strat_control.keys,key_resp_strat_control.rt,key_resp_strat_control.duration,break_2.started,break_2.stopped,key_resp_13.keys,routine_simu.started,text.started,image.started,key_resp.started,text.stopped,routine_simu.stopped,key_resp.keys,key_resp.corr,key_resp.rt,key_resp.duration,image.stopped,key_resp.stopped,text_17.started,key_resp_13.started,key_resp_13.rt,key_resp_13.duration,image_strat.stopped,key_resp_strat_control.stopped,practice_3Dd_screen.started,image_11.started,key_resp_22.started,practice_3Dd_screen.stopped,key_resp_22.keys,key_resp_22.rt,key_resp_22.duration,practice_1_3Dd.started,image_12.started,key_resp_23.started,practice_1_3Dd.stopped,key_resp_23.keys,key_resp_23.rt,key_resp_23.duration,practice_2_3Dd.started,image_13.started,key_resp_24.started,practice_2_3Dd.stopped,key_resp_24.keys,key_resp_24.rt,key_resp_24.duration,wm_3Dd_screen.started,text_16.started,key_resp_11.started,wm_3Dd_screen.stopped,key_resp_11.keys,key_resp_11.rt,key_resp_11.duration,routine_3Dd_wm.started,text_8.started,image_6.started,text_8.stopped,image_6.stopped,text_12.started,image_7.started,key_resp_6.started,text_12.stopped,routine_3Dd_wm.stopped,key_resp_6.keys,key_resp_6.corr,key_resp_6.rt,key_resp_6.duration,end.started,text_22.started,key_resp_18.started,end.stopped,key_resp_18.keys,key_resp_18.rt,key_resp_18.duration,participant,session,date,expName,psychopyVersion,frameRate,expStart,
,,,,,,,,,,,,,,,,,,,,,,,,,,,,,,,,,,,,,,,,0.06791890000022249,0.07415790000231937,0.07415790000231937,1.6309238000030746,rshift,1.531490000001213,None,,,,,,,,,,,,,,,,,,,,,,,,,,,,,,,,,,,,,,,,,,,,,,,,,,,,,,,,,,,,,,,,,,,,,,,,,,,,,,,,,,,,,,,,,,,,,,,,,,,,,,,,,,,,,,,,,,,,,,,,,,,,,,,,,,,,,,,005,001,2024-05-30_13h59.48.753,ps,2023.2.3,30.054262971249283,2024-05-30 13h59.59.001058 -0400,
,,,,,,,,,,,,,,,,,,,,,,,,,,,,,,,,,,,,,,,,,,,,,,,1.6309496000030776,1.6628587000013795,1.6628587000013795,7.097549300000537,rshift,5.422544000000926,None,,,,,,,,,,,,,,,,,,,,,,,,,,,,,,,,,,,,,,,,,,,,,,,,,,,,,,,,,,,,,,,,,,,,,,,,,,,,,,,,,,,,,,,,,,,,,,,,,,,,,,,,,,,,,,,,,,,,,,,,,,,,,,,,005,001,2024-05-30_13h59.48.753,ps,2023.2.3,30.054262971249283,2024-05-30 13h59.59.001058 -0400,
,,,,,,,,,,,,,,,,,,,,,,,,,,,,,,,,,,,,,,,,,,,,,,,,,,,,,,7.097566000004008,7.129604800000379,7.129604800000379,9.36740319999808,rshift,2.2285788000008324,None,,,,,,,,,,,,,,,,,,,,,,,,,,,,,,,,,,,,,,,,,,,,,,,,,,,,,,,,,,,,,,,,,,,,,,,,,,,,,,,,,,,,,,,,,,,,,,,,,,,,,,,,,,,,,,,,,,,,,,,,,005,001,2024-05-30_13h59.48.753,ps,2023.2.3,30.054262971249283,2024-05-30 13h59.59.001058 -0400,
,,,,,,,,,,,,,,,,,,,,,,,,,,,,,,,,,,,,,,,,,,,,,,,,,,,,,,,,,,,,,9.367421599999943,9.40010859999893,9.40010859999893,12.264175800002704,rshift,2.8525025000053574,None,,,,,,,,,,,,,,,,,,,,,,,,,,,,,,,,,,,,,,,,,,,,,,,,,,,,,,,,,,,,,,,,,,,,,,,,,,,,,,,,,,,,,,,,,,,,,,,,,,,,,,,,,,,,,,,,,,005,001,2024-05-30_13h59.48.753,ps,2023.2.3,30.054262971249283,2024-05-30 13h59.59.001058 -0400,
mini_blocks/3dp_wm_mini_block_0.xlsx,"*Break*
Entering the 3D WORKING MEMORY block
Rotation is Counter/Clockwise
Press <4> to continue",1,0,0,3D,p,120,True,True,20,obj8,320,80,output_pairs/3Dp_120_M_WM/3Dp_120_M_WM_20_1_obj_8_320deg.png,output_pairs/3Dp_120_M_WM/3Dp_120_M_WM_20_2_obj_8_80deg.png,655,period,0,0,0,0,,,,,0,0,0,0,,,,,,,,,27.133814799999527,,,,,,,,,,,,,,,,,,,,,,,,,,,,,,12.26933889999782,12.296211300003051,12.296211300003051,26.96417250000377,rshift,14.660563999997976,None,26.976594500003557,27.133814799999527,27.967561400000704,28.16337139999814,31.967694500002835,31.967694500002835,32.96772780000174,32.96772780000174,32.96772780000174,35.43125069999951,comma,0,2.4616735000017798,None,35.43172780000168,35.463174000004074,35.463174000004074,37.43654480000259,2.0,['period'],[1.3416343000062625],[None],37.43702430000121,37.46772290000081,39.467693400001735,,,,,,,,,,,,,,,,,,,,,,,,,,,,,,,,,,,,,,,,,,,,,,,,,,,,,,,,,,,,,,,,,,,,,,,,,,,,,,,,,,005,001,2024-05-30_13h59.48.753,ps,2023.2.3,30.054262971249283,2024-05-30 13h59.59.001058 -0400,
mini_blocks/3dp_wm_mini_block_0.xlsx,"*Break*
Entering the 3D WORKING MEMORY block
Rotation is Counter/Clockwise
Press <4> to continue",1,0,0,3D,p,180,True,True,1,obj7,320,140,output_pairs/3Dp_180_M_WM/3Dp_180_M_WM_01_1_obj_7_320deg.png,output_pairs/3Dp_180_M_WM/3Dp_180_M_WM_01_2_obj_7_140deg.png,63,period,0,0,0,0,,,,,0,1,1,1,,,,,,,,,39.51675460000115,,,,,,,,,,,,,,,,,,,,,,,,,,,,,,,,,,,,,39.46803260000161,39.51675460000115,40.46311589999823,40.5405654999995,44.467735700003686,44.43436749999819,45.43006299999979,45.43006299999979,45.43006299999979,47.964152900000045,period,1,2.5035844999947585,None,47.96448080000118,47.99649340000178,47.99649340000178,49.96958399999858,None,None,,,49.969671700004255,50.001056699999026,51.9737884999995,,,,,,,,,,,,,,,,,,,,,,,,,,,,,,,,,,,,,,,,,,,,,,,,,,,,,,,,,,,,,,,,,,,,,,,,,,,,,,,,,,005,001,2024-05-30_13h59.48.753,ps,2023.2.3,30.054262971249283,2024-05-30 13h59.59.001058 -0400,
mini_blocks/3dp_wm_mini_block_0.xlsx,"*Break*
Entering the 3D WORKING MEMORY block
Rotation is Counter/Clockwise
Press <4> to continue",1,0,0,3D,p,0,True,True,15,obj2,320,320,output_pairs/3Dp_0_M_WM/3Dp_0_M_WM_15_1_obj_2_320deg.png,output_pairs/3Dp_0_M_WM/3Dp_0_M_WM_15_2_obj_2_320deg.png,523,period,0,0,0,0,,,,,0,2,2,2,,,,,,,,,52.03780369999731,,,,,,,,,,,,,,,,,,,,,,,,,,,,,,,,,,,,,51.97397130000172,52.03780369999731,53.001135200000135,53.063489500003925,57.03439739999885,56.96339969999826,57.96779400000378,57.96779400000378,57.96779400000378,60.09708200000023,comma,0,2.1263611000031233,None,60.09728200000245,60.12977669999964,60.12977669999964,62.10302529999899,2.0,['period'],[1.1001799000005121],[None],62.10318140000163,62.13440660000197,64.13028050000139,,,,,,,,,,,,,,,,,,,,,,,,,,,,,,,,,,,,,,,,,,,,,,,,,,,,,,,,,,,,,,,,,,,,,,,,,,,,,,,,,,005,001,2024-05-30_13h59.48.753,ps,2023.2.3,30.054262971249283,2024-05-30 13h59.59.001058 -0400,
mini_blocks/3dp_wm_mini_block_0.xlsx,"*Break*
Entering the 3D WORKING MEMORY block
Rotation is Counter/Clockwise
Press <4> to continue",1,0,0,3D,p,0,False,True,32,sm1,100,100,output_pairs/3Dp_0_WM/3Dp_0_WM_32_1_sm_1_100deg.png,output_pairs/3Dp_0_WM/3Dp_0_WM_32_2_sm_1_100deg.png,110,comma,0,0,0,0,,,,,0,3,3,3,,,,,,,,,64.17815279999922,,,,,,,,,,,,,,,,,,,,,,,,,,,,,,,,,,,,,64.13057570000092,64.17815279999922,65.09673370000382,65.19679600000381,69.10117080000055,69.10117080000055,70.10116859999835,70.10116859999835,70.10116859999835,71.3307277999993,comma,1,1.2009130000005825,None,71.33093390000431,71.3630323000034,71.3630323000034,73.33353680000437,4.0,['rshift'],[1.0273148999986006],[None],73.33368779999728,73.36312460000045,75.34053829999903,73.36312460000045,73.36312460000045,,,,,,,,,,,,,,,,,,,,,,,,,,,,,,,,,,,,,,,,,,,,,,,,,,,,,,,,,,,,,,,,,,,,,,,,,,,,,,,,005,001,2024-05-30_13h59.48.753,ps,2023.2.3,30.054262971249283,2024-05-30 13h59.59.001058 -0400,
mini_blocks/3dp_wm_mini_block_0.xlsx,"*Break*
Entering the 3D WORKING MEMORY block
Rotation is Counter/Clockwise
Press <4> to continue",1,0,0,3D,p,60,True,True,6,obj9,80,20,output_pairs/3Dp_60_M_WM/3Dp_60_M_WM_06_1_obj_9_80deg.png,output_pairs/3Dp_60_M_WM/3Dp_60_M_WM_06_2_obj_9_20deg.png,295,period,0,0,0,0,,,,,0,4,4,4,,,,,,,,,75.40620950000448,,,,,,,,,,,,,,,,,,,,,,,,,,,,,,,,,,,,,75.34074189999956,75.40620950000448,76.33442069999728,76.43022960000235,80.363417200002,80.32990699999937,81.3345726999978,81.3345726999978,81.3345726999978,84.46419199999946,period,1,3.1035511000009137,None,84.46439690000261,84.49672690000443,84.49672690000443,86.46977770000376,2.0,['period'],[0.9500849999967613],[None],86.4699374999982,86.50120700000116,88.49697300000116,,,,,,,,,,,,,,,,,,,,,,,,,,,,,,,,,,,,,,,,,,,,,,,,,,,,,,,,,,,,,,,,,,,,,,,,,,,,,,,,,,005,001,2024-05-30_13h59.48.753,ps,2023.2.3,30.054262971249283,2024-05-30 13h59.59.001058 -0400,
mini_blocks/3dp_wm_mini_block_0.xlsx,"*Break*
Entering the 3D WORKING MEMORY block
Rotation is Counter/Clockwise
Press <4> to continue",1,0,0,3D,p,60,False,True,6,sm1,280,340,output_pairs/3Dp_60_WM/3Dp_60_WM_06_1_sm_1_280deg.png,output_pairs/3Dp_60_WM/3Dp_60_WM_06_2_sm_1_340deg.png,404,comma,0,0,0,0,,,,,0,5,5,5,,,,,,,,,88.55772699999943,,,,,,,,,,,,,,,,,,,,,,,,,,,,,,,,,,,,,88.49719609999738,88.55772699999943,89.47382949999883,89.57391330000246,93.49668770000426,93.49668770000426,94.49664630000188,94.46331389999978,94.46331389999978,96.43530129999999,comma,1,1.9511490000004414,None,96.43548759999976,96.46374050000304,96.46374050000304,98.43348949999927,3.0,['slash'],[1.173429299997224],[None],98.43363559999852,98.4633393999975,100.43512249999912,98.4633393999975,98.4633393999975,100.50177570000233,,,,,,,,,,,,,,,,,,,,,,,,,,,,,,,,,,,,,,,,,,,,,,,,,,,,,,,,,,,,,,,,,,,,,,,,,,,,,,,005,001,2024-05-30_13h59.48.753,ps,2023.2.3,30.054262971249283,2024-05-30 13h59.59.001058 -0400,
mini_blocks/3dp_wm_mini_block_0.xlsx,"*Break*
Entering the 3D WORKING MEMORY block
Rotation is Counter/Clockwise
Press <4> to continue",1,0,0,3D,p,180,False,True,8,obj8,80,260,output_pairs/3Dp_180_WM/3Dp_60_WM_08_1_obj_8_80deg.png,output_pairs/3Dp_180_WM/3Dp_60_WM_08_2_obj_8_260deg.png,501,comma,0,0,0,0,,,,,0,6,6,6,,,,,,,,,100.50177570000233,,,,,,,,,,,,,,,,,,,,,,,,,,,,,,,,,,,,,100.43530420000025,100.50177570000233,101.44053980000172,101.50737710000249,105.46794390000287,105.43462369999907,106.4637903000039,106.4637903000039,106.4637903000039,109.96413649999886,period,0,3.4859952999977395,None,109.9643245000043,109.99672190000274,109.99672190000274,111.96970329999749,None,None,,,111.96980839999742,112.00128579999728,113.96800410000287,,,,,,,,,,,,,,,,,,,,,,,,,,,,,,,,,,,,,,,,,,,,,,,,,,,,,,,,,,,,,,,,,,,,,,,,,,,,,,,,,,005,001,2024-05-30_13h59.48.753,ps,2023.2.3,30.054262971249283,2024-05-30 13h59.59.001058 -0400,
mini_blocks/3dp_wm_mini_block_0.xlsx,"*Break*
Entering the 3D WORKING MEMORY block
Rotation is Counter/Clockwise
Press <4> to continue",1,0,0,3D,p,0,True,True,10,obj8,160,160,output_pairs/3Dp_0_M_WM/3Dp_0_M_WM_10_1_obj_8_160deg.png,output_pairs/3Dp_0_M_WM/3Dp_0_M_WM_10_2_obj_8_160deg.png,513,period,0,0,0,0,,,,,0,7,7,7,,,,,,,,,114.04130840000289,,,,,,,,,,,,,,,,,,,,,,,,,,,,,,,,,,,,,113.96819030000188,114.04130840000289,114.9741617000036,115.04083279999759,119.00134719999915,118.96373440000025,119.97388900000078,119.97388900000078,119.97388900000078,122.19760569999926,comma,0,2.2002367000022787,None,122.19781189999776,122.23017409999738,122.23017409999738,124.2030992,2.0,['period'],[0.7986101999995299],[None],124.20324999999866,124.23466170000029,126.23055390000081,,,,,,,,,,,,,,,,,,,,,,,,,,,,,,,,,,,,,,,,,,,,,,,,,,,,,,,,,,,,,,,,,,,,,,,,,,,,,,,,,,005,001,2024-05-30_13h59.48.753,ps,2023.2.3,30.054262971249283,2024-05-30 13h59.59.001058 -0400,
mini_blocks/3dp_wm_mini_block_0.xlsx,"*Break*
Entering the 3D WORKING MEMORY block
Rotation is Counter/Clockwise
Press <4> to continue",1,0,0,3D,p,180,False,True,3,obj3,340,160,output_pairs/3Dp_180_WM/3Dp_60_WM_03_1_obj_3_340deg.png,output_pairs/3Dp_180_WM/3Dp_60_WM_03_2_obj_3_160deg.png,503,comma,0,0,0,0,,,,,0,8,8,8,,,,,,,,,126.28039189999981,,,,,,,,,,,,,,,,,,,,,,,,,,,,,,,,,,,,,126.23081719999755,126.28039189999981,127.19690660000197,127.30135100000189,131.19676700000127,131.19676700000127,132.20138310000038,132.20138310000038,132.20138310000038,134.79777879999892,comma,1,2.587961599994742,None,134.7979833999998,134.8299498999986,134.8299498999986,136.80154140000377,2.0,['period'],[1.0553386000028695],[None],136.8016972999976,136.83477130000392,138.8077024000013,136.83477130000392,136.83477130000392,,,,,,,,,,,,,,,,,,,,,,,,,,,,,,,,,,,,,,,,,,,,,,,,,,,,,,,,,,,,,,,,,,,,,,,,,,,,,,,,005,001,2024-05-30_13h59.48.753,ps,2023.2.3,30.054262971249283,2024-05-30 13h59.59.001058 -0400,
mini_blocks/3dp_wm_mini_block_0.xlsx,"*Break*
Entering the 3D WORKING MEMORY block
Rotation is Counter/Clockwise
Press <4> to continue",1,0,0,3D,p,60,True,True,11,sm3,320,260,output_pairs/3Dp_60_M_WM/3Dp_60_M_WM_11_1_sm_3_320deg.png,output_pairs/3Dp_60_M_WM/3Dp_60_M_WM_11_2_sm_3_260deg.png,304,period,0,0,0,0,,,,,0,9,9,9,,,,,,,,,138.87455520000367,,,,,,,,,,,,,,,,,,,,,,,,,,,,,,,,,,,,,138.80789370000275,138.87455520000367,139.79734599999938,139.89719540000078,143.79700700000103,143.83029170000373,144.83487179999793,144.8014800000019,144.8014800000019,147.03113860000303,comma,0,2.22744529999909,None,147.03133309999976,147.06356699999742,147.06356699999742,149.03651849999733,3.0,['slash'],[1.0701951000010013],[None],149.0366681000014,149.06812609999906,151.0410824999999,,,,,,,,,,,,,,,,,,,,,,,,,,,,,,,,,,,,,,,,,,,,,,,,,,,,,,,,,,,,,,,,,,,,,,,,,,,,,,,,,,005,001,2024-05-30_13h59.48.753,ps,2023.2.3,30.054262971249283,2024-05-30 13h59.59.001058 -0400,
mini_blocks/3dp_wm_mini_block_0.xlsx,"*Break*
Entering the 3D WORKING MEMORY block
Rotation is Counter/Clockwise
Press <4> to continue",1,0,0,3D,p,180,True,True,12,sm4,160,340,output_pairs/3Dp_180_M_WM/3Dp_180_M_WM_12_1_sm_4_160deg.png,output_pairs/3Dp_180_M_WM/3Dp_180_M_WM_12_2_sm_4_340deg.png,58,period,0,0,0,0,,,,,0,10,10,10,,,,,,,,,151.13640090000263,,,,,,,,,,,,,,,,,,,,,,,,,,,,,,,,,,,,,151.04125999999815,151.13640090000263,152.03049830000236,152.16386819999752,156.03017120000004,156.03017120000004,157.03502619999927,157.03502619999927,157.03502619999927,159.39768110000296,comma,0,2.3552490000001853,None,159.39788630000112,159.4301536999992,159.4301536999992,161.4032673000038,2.0,['period'],[0.9913291000048048],[None],161.4034488000034,161.43480570000247,163.43061170000146,,,,,,,,,,,,,,,,,,,,,,,,,,,,,,,,,,,,,,,,,,,,,,,,,,,,,,,,,,,,,,,,,,,,,,,,,,,,,,,,,,005,001,2024-05-30_13h59.48.753,ps,2023.2.3,30.054262971249283,2024-05-30 13h59.59.001058 -0400,
mini_blocks/3dp_wm_mini_block_0.xlsx,"*Break*
Entering the 3D WORKING MEMORY block
Rotation is Counter/Clockwise
Press <4> to continue",1,0,0,3D,p,60,False,True,27,obj1,280,340,output_pairs/3Dp_60_WM/3Dp_60_WM_27_1_obj_15_280deg.png,output_pairs/3Dp_60_WM/3Dp_60_WM_27_2_obj_15_340deg.png,400,comma,0,0,0,0,,,,,0,11,11,11,,,,,,,,,163.50147129999823,,,,,,,,,,,,,,,,,,,,,,,,,,,,,,,,,,,,,163.43089250000048,163.50147129999823,164.39737730000343,164.53064209999866,168.40152099999978,168.40152099999978,169.40156540000316,169.40156540000316,169.40156540000316,172.19787730000098,comma,1,2.763366599996516,None,172.19808490000287,172.23044200000004,172.23044200000004,174.2032035000011,3.0,['slash'],[0.879767799997353],[None],174.20335830000113,174.23488250000082,176.2306987999982,,,,,,,,,,,,,,,,,,,,,,,,,,,,,,,,,,,,,,,,,,,,,,,,,,,,,,,,,,,,,,,,,,,,,,,,,,,,,,,,,,005,001,2024-05-30_13h59.48.753,ps,2023.2.3,30.054262971249283,2024-05-30 13h59.59.001058 -0400,
mini_blocks/3dp_wm_mini_block_0.xlsx,"*Break*
Entering the 3D WORKING MEMORY block
Rotation is Counter/Clockwise
Press <4> to continue",1,0,0,3D,p,120,False,True,18,obj1,320,80,output_pairs/3Dp_120_WM/3Dp_120_WM_18_1_obj_14_320deg.png,output_pairs/3Dp_120_WM/3Dp_120_WM_18_2_obj_14_80deg.png,341,comma,0,0,0,0,,,,,0,12,12,12,,,,,,,,,176.2919039000044,,,,,,,,,,,,,,,,,,,,,,,,,,,,,,,,,,,,,176.23097470000357,176.2919039000044,177.20755949999875,177.30756980000297,181.23067730000184,181.2015631000031,182.2305441999997,182.19730259999778,182.19730259999778,183.79759799999738,comma,1,1.5851456000018516,None,183.79779989999952,183.83035720000044,183.83035720000044,185.80109860000084,2.0,['period'],[0.8314208999945549],[None],185.80125170000247,185.83046040000045,187.8077026000028,185.83046040000045,185.83046040000045,,,,,,,,,,,,,,,,,,,,,,,,,,,,,,,,,,,,,,,,,,,,,,,,,,,,,,,,,,,,,,,,,,,,,,,,,,,,,,,,005,001,2024-05-30_13h59.48.753,ps,2023.2.3,30.054262971249283,2024-05-30 13h59.59.001058 -0400,
mini_blocks/3dp_wm_mini_block_0.xlsx,"*Break*
Entering the 3D WORKING MEMORY block
Rotation is Counter/Clockwise
Press <4> to continue",1,0,0,3D,p,120,False,True,28,obj9,280,40,output_pairs/3Dp_120_WM/3Dp_120_WM_28_1_obj_9_280deg.png,output_pairs/3Dp_120_WM/3Dp_120_WM_28_2_obj_9_40deg.png,348,comma,0,0,0,0,,,,,0,13,13,13,,,,,,,,,187.8948315000016,,,,,,,,,,,,,,,,,,,,,,,,,,,,,,,,,,,,,187.80789599999844,187.8948315000016,188.7973512000026,188.90153100000316,192.79726920000394,192.79726920000394,193.80178380000143,193.80178380000143,193.80178380000143,195.23087759999908,comma,1,1.4118765000021085,None,195.23108470000443,195.26373030000104,195.26373030000104,197.23433289999957,3.0,['slash'],[1.350127199999406],[None],197.23459040000307,197.26823069999955,199.24134449999838,197.26823069999955,197.26823069999955,,,,,,,,,,,,,,,,,,,,,,,,,,,,,,,,,,,,,,,,,,,,,,,,,,,,,,,,,,,,,,,,,,,,,,,,,,,,,,,,005,001,2024-05-30_13h59.48.753,ps,2023.2.3,30.054262971249283,2024-05-30 13h59.59.001058 -0400,
mini_blocks/3dp_wm_mini_block_0.xlsx,"*Break*
Entering the 3D WORKING MEMORY block
Rotation is Counter/Clockwise
Press <4> to continue",1,0,0,3D,p,0,False,True,13,obj6,180,180,output_pairs/3Dp_0_WM/3Dp_0_WM_13_1_obj_6_180deg.png,output_pairs/3Dp_0_WM/3Dp_0_WM_13_2_obj_6_180deg.png,125,comma,0,0,0,0,,,,,0,14,14,14,,,,,,,,,199.3133130999995,,,,,,,,,,,,,,,,,,,,,,,,,,,,,,,,,,,,,199.24153929999738,199.3133130999995,200.2349286000026,200.3349309000041,204.26388189999852,204.230412900004,205.2350452000028,205.2350452000028,205.2350452000028,207.09815730000264,comma,1,1.8509775999991689,None,207.09836070000165,207.1304076000015,207.1304076000015,209.1035198000027,4.0,['rshift'],[0.7150723999948241],[None],209.1036654999989,209.13504710000416,211.10178150000138,,,,,,,,,,,,,,,,,,,,,,,,,,,,,,,,,,,,,,,,,,,,,,,,,,,,,,,,,,,,,,,,,,,,,,,,,,,,,,,,,,005,001,2024-05-30_13h59.48.753,ps,2023.2.3,30.054262971249283,2024-05-30 13h59.59.001058 -0400,
mini_blocks/3dp_wm_mini_block_0.xlsx,"*Break*
Entering the 3D WORKING MEMORY block
Rotation is Counter/Clockwise
Press <4> to continue",1,0,0,3D,p,120,True,True,22,obj4,180,60,output_pairs/3Dp_120_M_WM/3Dp_120_M_WM_22_1_obj_4_180deg.png,output_pairs/3Dp_120_M_WM/3Dp_120_M_WM_22_2_obj_4_60deg.png,666,period,0,0,0,0,,,,,0,15,15,15,,,,,,,,,211.15425820000382,,,,,,,,,,,,,,,,,,,,,,,,,,,,,,,,,,,,,211.10197750000225,211.15425820000382,212.09747320000315,212.1684849000012,216.1017359000034,216.1017359000034,217.1078720000005,217.1078720000005,217.1078720000005,218.33572730000014,comma,0,1.2178714999972726,None,218.33592430000135,218.368392700002,218.368392700002,220.36552980000124,3.0,['slash'],[1.6854335999960313],[None],220.36568980000447,220.39717290000408,222.36865640000178,,,,,,,,,,,,,,,,,,,,,,,,,,,,,,,,,,,,,,,,,,,,,,,,,,,,,,,,,,,,,,,,,,,,,,,,,,,,,,,,,,005,001,2024-05-30_13h59.48.753,ps,2023.2.3,30.054262971249283,2024-05-30 13h59.59.001058 -0400,
mini_blocks/3dp_wm_mini_block_0.xlsx,"*Break*
Entering the 3D WORKING MEMORY block
Rotation is Counter/Clockwise
Press <4> to continue",1,0,0,,,,,,,,,,,,,,0,0,0,0,,,,,,,,,,,,,,,,,,,,,,,,,,,,,,,,,,,,,,,,,,,,,,,,,,,,,,,,,,,,,,,,,,,,,,,,,,,,,,,,,,222.368727699999,222.40187190000142,222.40187190000142,230.3658484999978,3.0,['slash'],[3.8270083000024897],[None],230.36613010000292,230.36615690000326,None,,,,,,,,,,,,,,,,,,,,,,,,,,,,,,,,,,,,,,,,,,,,,,,,,,,,,,,,,,,,,,,,,,,,005,001,2024-05-30_13h59.48.753,ps,2023.2.3,30.054262971249283,2024-05-30 13h59.59.001058 -0400,
mini_blocks/3dp_single_mini_block_2.xlsx,"*Break*
Entering the 3D SIMULTANEOUS block
Rotation is Counter/Clockwise
Press <4> to continue",0,1,0,3D,p,120,True,False,None,obj1,100,220,output_pairs/3Dp_120m/3Dp_120m_obj_1_100_to_220deg.png,None,2137,period,0,1,1,1,0,0,0,0,,,,,,,,,,,,,237.18434459999844,,,,,,,,,,,,,,,,,,,,,,,,,,,,,,230.36631950000447,230.39708260000043,230.39708260000043,237.0649648000035,rshift,6.647923200005607,None,,,,,,,,,,,,,,,245.6317068999997,245.6639725999994,245.6639725999994,247.6370517000032,2.0,['period'],[1.6862133000031463],[None],247.63729450000392,247.6686239999981,249.64119400000345,,,,,,,,,,,,,,,237.07873449999897,237.18434459999844,238.0642491000035,238.0642491000035,238.20718869999837,245.63139270000102,period,1,7.5652429000037955,None,,,,,,,,,,,,,,,,,,,,,,,,,,,,,,,,,,,,,,,,,,,,,,,,,,,,,,,,,,005,001,2024-05-30_13h59.48.753,ps,2023.2.3,30.054262971249283,2024-05-30 13h59.59.001058 -0400,
mini_blocks/3dp_single_mini_block_2.xlsx,"*Break*
Entering the 3D SIMULTANEOUS block
Rotation is Counter/Clockwise
Press <4> to continue",0,1,0,3D,p,120,True,False,None,obj1,320,80,output_pairs/3Dp_120m/3Dp_120m_obj_13_320_to_80deg.png,None,2129,period,0,1,1,1,0,1,1,1,,,,,,,,,,,,,249.68323090000194,,,,,,,,,,,,,,,,,,,,,,,,,,,,,,,,,,,,,,,,,,,,,,,,,,,254.16459749999922,254.1974205000006,254.1974205000006,256.17162040000403,None,None,,,256.17174630000227,256.201931399999,258.1980842999983,,,,,,,,,,,,,,,249.64137460000347,249.68323090000194,250.63090679999732,250.63090679999732,250.69754049999756,254.16437379999843,period,1,3.5183856999938143,None,,,,,,,,,,,,,,,,,,,,,,,,,,,,,,,,,,,,,,,,,,,,,,,,,,,,,,,,,,005,001,2024-05-30_13h59.48.753,ps,2023.2.3,30.054262971249283,2024-05-30 13h59.59.001058 -0400,
mini_blocks/3dp_single_mini_block_2.xlsx,"*Break*
Entering the 3D SIMULTANEOUS block
Rotation is Counter/Clockwise
Press <4> to continue",0,1,0,3D,p,0,False,False,None,obj1,280,None,output_pairs/3Dp_0/3Dp_0_obj_14_280deg.png,None,2145,comma,0,1,1,1,0,2,2,2,,,,,,,,,,,,,258.2349140000006,,,,,,,,,,,,,,,,,,,,,,,,,,,,,,,,,,,,,,,,,,,,,,,,,,,260.4316115000038,260.46404110000003,260.46404110000003,262.43684690000373,4.0,['rshift'],[0.8299448999969172],[None],262.4369998999973,262.46856359999947,264.4352352999995,,,,,,,,,,,,,,,258.19837030000053,258.2349140000006,259.17469020000135,259.17469020000135,259.24050250000437,260.4313515000031,comma,1,1.2547306000051321,None,,,,,,,,,,,,,,,,,,,,,,,,,,,,,,,,,,,,,,,,,,,,,,,,,,,,,,,,,,005,001,2024-05-30_13h59.48.753,ps,2023.2.3,30.054262971249283,2024-05-30 13h59.59.001058 -0400,
mini_blocks/3dp_single_mini_block_2.xlsx,"*Break*
Entering the 3D SIMULTANEOUS block
Rotation is Counter/Clockwise
Press <4> to continue",0,1,0,3D,p,0,False,False,None,obj1,180,None,output_pairs/3Dp_0/3Dp_0_obj_10_180deg.png,None,2149,comma,0,1,1,1,0,3,3,3,,,,,,,,,,,,,264.4718006999974,,,,,,,,,,,,,,,,,,,,,,,,,,,,,,,,,,,,,,,,,,,,,,,,,,,266.531576100002,266.5638967999985,266.5638967999985,268.534542100002,4.0,['rshift'],[0.641852500004461],[None],268.5347096999976,268.5640765999997,270.541544300002,268.5640765999997,268.5640765999997,,,,,,,,,,,,,264.43544230000407,264.4718006999974,265.4308243999985,265.4308243999985,265.497523500002,266.5313664999994,comma,1,1.07024879999517,None,,,,,,,,,,,,,,,,,,,,,,,,,,,,,,,,,,,,,,,,,,,,,,,,,,,,,,,,,,005,001,2024-05-30_13h59.48.753,ps,2023.2.3,30.054262971249283,2024-05-30 13h59.59.001058 -0400,
mini_blocks/3dp_single_mini_block_2.xlsx,"*Break*
Entering the 3D SIMULTANEOUS block
Rotation is Counter/Clockwise
Press <4> to continue",0,1,0,3D,p,0,False,False,None,obj9,260,None,output_pairs/3Dp_0/3Dp_0_obj_9_260deg.png,None,2150,comma,0,1,1,1,0,4,4,4,,,,,,,,,,,,,270.59023380000144,,,,,,,,,,,,,,,,,,,,,,,,,,,,,,,,,,,,,,,,,,,,,,,,,,,273.2648568000004,273.2973992000043,273.2973992000043,275.270314100002,4.0,['rshift'],[0.7407863999978872],[None],275.2704592000009,275.3019768000013,277.2749435000005,,,,,,,,,,,,,,,270.5417258000016,270.59023380000144,271.5309718999997,271.5309718999997,271.60160510000424,273.26464600000327,comma,1,1.722486700004083,None,,,,,,,,,,,,,,,,,,,,,,,,,,,,,,,,,,,,,,,,,,,,,,,,,,,,,,,,,,005,001,2024-05-30_13h59.48.753,ps,2023.2.3,30.054262971249283,2024-05-30 13h59.59.001058 -0400,
mini_blocks/3dp_single_mini_block_2.xlsx,"*Break*
Entering the 3D SIMULTANEOUS block
Rotation is Counter/Clockwise
Press <4> to continue",0,1,0,3D,p,180,False,False,None,obj1,80,260,output_pairs/3Dp_180/3Dp_180_obj_12_80_to_260deg.png,None,764,comma,0,1,1,1,0,5,5,5,,,,,,,,,,,,,277.3150377999991,,,,,,,,,,,,,,,,,,,,,,,,,,,,,,,,,,,,,,,,,,,,,,,,,,,287.2317062000002,287.2642390000037,287.2642390000037,289.23879170000146,1.0,['comma'],[1.5969118000066373],[None],289.2389364999981,289.26871799999935,291.23572570000397,289.26871799999935,289.26871799999935,291.272999300003,,,,,,,,,,,,277.2751270000008,277.3150377999991,278.26432890000433,278.26432890000433,278.33491530000174,287.2315088000032,None,0,,,287.2642390000037,287.2642390000037,,,,,,,,,,,,,,,,,,,,,,,,,,,,,,,,,,,,,,,,,,,,,,,,,,,,,,,,005,001,2024-05-30_13h59.48.753,ps,2023.2.3,30.054262971249283,2024-05-30 13h59.59.001058 -0400,
mini_blocks/3dp_single_mini_block_2.xlsx,"*Break*
Entering the 3D SIMULTANEOUS block
Rotation is Counter/Clockwise
Press <4> to continue",0,1,0,3D,p,120,False,False,None,obj2,280,40,output_pairs/3Dp_120/3Dp_120_obj_2_280_to_40deg.png,None,729,comma,0,1,1,1,0,6,6,6,,,,,,,,,,,,,291.272999300003,,,,,,,,,,,,,,,,,,,,,,,,,,,,,,,,,,,,,,,,,,,,,,,,,,,297.89865719999943,297.9306479000006,297.9306479000006,299.9017643000043,2.0,['period'],[0.9390224000017042],[None],299.9019227000026,299.93541769999865,301.94174550000025,299.93541769999865,299.93541769999865,,,,,,,,,,,,,291.23589979999815,291.272999300003,292.2749696000028,292.2749696000028,292.2749696000028,297.8984461,period,0,5.618598599998222,None,,,,,,,,,,,,,,,,,,,,,,,,,,,,,,,,,,,,,,,,,,,,,,,,,,,,,,,,,,005,001,2024-05-30_13h59.48.753,ps,2023.2.3,30.054262971249283,2024-05-30 13h59.59.001058 -0400,
mini_blocks/3dp_single_mini_block_2.xlsx,"*Break*
Entering the 3D SIMULTANEOUS block
Rotation is Counter/Clockwise
Press <4> to continue",0,1,0,3D,p,180,True,False,None,obj1,320,140,output_pairs/3Dp_180m/3Dp_180m_obj_10_320_to_140deg.png,None,2036,period,0,1,1,1,0,7,7,7,,,,,,,,,,,,,302.00189220000175,,,,,,,,,,,,,,,,,,,,,,,,,,,,,,,,,,,,,,,,,,,,,,,,,,,308.0359599000003,308.0684321000008,308.0684321000008,310.04325450000033,2.0,['period'],[1.6972284999937983],[None],310.0434133000017,310.07490569999936,312.04174030000286,,,,,,,,,,,,,,,301.9419302000024,302.00189220000175,302.8978033000021,302.8978033000021,303.0311565000011,308.0357501000035,comma,0,5.115512899996247,None,,,,,,,,,,,,,,,,,,,,,,,,,,,,,,,,,,,,,,,,,,,,,,,,,,,,,,,,,,005,001,2024-05-30_13h59.48.753,ps,2023.2.3,30.054262971249283,2024-05-30 13h59.59.001058 -0400,
mini_blocks/3dp_single_mini_block_2.xlsx,"*Break*
Entering the 3D SIMULTANEOUS block
Rotation is Counter/Clockwise
Press <4> to continue",0,1,0,3D,p,0,True,False,None,obj5,180,None,output_pairs/3Dp_0m/3Dp_0m_obj_5_180deg.png,None,1710,period,0,1,1,1,0,8,8,8,,,,,,,,,,,,,312.082144400003,,,,,,,,,,,,,,,,,,,,,,,,,,,,,,,,,,,,,,,,,,,,,,,,,,,314.59855190000235,314.6309390000024,314.6309390000024,316.6012630000041,4.0,['rshift'],[0.8628301999997348],[None],316.6014340000038,316.6307814000029,318.6082163000028,316.6307814000029,316.6307814000029,,,,,,,,,,,,,312.04192010000406,312.082144400003,313.03537170000345,313.03537170000345,313.09779340000387,314.59830710000097,period,1,1.5300770000030752,None,,,,,,,,,,,,,,,,,,,,,,,,,,,,,,,,,,,,,,,,,,,,,,,,,,,,,,,,,,005,001,2024-05-30_13h59.48.753,ps,2023.2.3,30.054262971249283,2024-05-30 13h59.59.001058 -0400,
mini_blocks/3dp_single_mini_block_2.xlsx,"*Break*
Entering the 3D SIMULTANEOUS block
Rotation is Counter/Clockwise
Press <4> to continue",0,1,0,3D,p,120,True,False,None,obj9,220,340,output_pairs/3Dp_120m/3Dp_120m_obj_9_220_to_340deg.png,None,2117,period,0,1,1,1,0,9,9,9,,,,,,,,,,,,,318.65110260000074,,,,,,,,,,,,,,,,,,,,,,,,,,,,,,,,,,,,,,,,,,,,,,,,,,,322.3651155000043,322.39757459999964,322.39757459999964,324.37059939999745,None,None,,,324.3706886,324.40220370000316,326.3979846000002,,,,,,,,,,,,,,,318.60840579999785,318.65110260000074,319.6021516000037,319.6021516000037,319.6684172000023,322.36490739999863,period,1,2.7555661000005784,None,,,,,,,,,,,,,,,,,,,,,,,,,,,,,,,,,,,,,,,,,,,,,,,,,,,,,,,,,,005,001,2024-05-30_13h59.48.753,ps,2023.2.3,30.054262971249283,2024-05-30 13h59.59.001058 -0400,
mini_blocks/3dp_single_mini_block_2.xlsx,"*Break*
Entering the 3D SIMULTANEOUS block
Rotation is Counter/Clockwise
Press <4> to continue",0,1,0,3D,p,120,True,False,None,obj1,220,340,output_pairs/3Dp_120m/3Dp_120m_obj_11_220_to_340deg.png,None,2121,period,0,1,1,1,0,10,10,10,,,,,,,,,,,,,326.4357785000029,,,,,,,,,,,,,,,,,,,,,,,,,,,,,,,,,,,,,,,,,,,,,,,,,,,336.3316563999979,336.364433499999,336.364433499999,338.33914070000174,1.0,"['period', 'comma']","[0.3444256000002497, 1.2574065999942832]","[None, None]",338.33928659999947,338.368948000003,340.3359464000023,338.368948000003,338.368948000003,340.3864106000037,,,,,,,,,,,,326.39824110000336,326.4357785000029,327.3644454000023,327.3644454000023,327.4646672000017,336.33148059999803,None,0,,,336.364433499999,336.364433499999,,,,,,,,,,,,,,,,,,,,,,,,,,,,,,,,,,,,,,,,,,,,,,,,,,,,,,,,005,001,2024-05-30_13h59.48.753,ps,2023.2.3,30.054262971249283,2024-05-30 13h59.59.001058 -0400,
mini_blocks/3dp_single_mini_block_2.xlsx,"*Break*
Entering the 3D SIMULTANEOUS block
Rotation is Counter/Clockwise
Press <4> to continue",0,1,0,3D,p,120,False,False,None,obj8,300,60,output_pairs/3Dp_120/3Dp_120_obj_8_300_to_60deg.png,None,707,comma,0,1,1,1,0,11,11,11,,,,,,,,,,,,,340.3864106000037,,,,,,,,,,,,,,,,,,,,,,,,,,,,,,,,,,,,,,,,,,,,,,,,,,,345.9026483999987,345.93131359999825,345.93131359999825,347.9017982000005,2.0,['period'],[0.8736934999978985],[None],347.90194789999805,347.93099169999914,349.89852480000263,347.93099169999914,347.93099169999914,349.93599270000414,,,,,,,,,,,,340.3361189999996,340.3864106000037,341.3689077000017,341.3689077000017,341.39799700000003,345.90243790000386,comma,1,4.508802500000456,None,,,,,,,,,,,,,,,,,,,,,,,,,,,,,,,,,,,,,,,,,,,,,,,,,,,,,,,,,,005,001,2024-05-30_13h59.48.753,ps,2023.2.3,30.054262971249283,2024-05-30 13h59.59.001058 -0400,
mini_blocks/3dp_single_mini_block_2.xlsx,"*Break*
Entering the 3D SIMULTANEOUS block
Rotation is Counter/Clockwise
Press <4> to continue",0,1,0,3D,p,60,False,False,None,obj4,280,340,output_pairs/3Dp_60/3Dp_60_obj_4_280_to_340deg.png,None,1619,comma,0,1,1,1,0,12,12,12,,,,,,,,,,,,,349.93599270000414,,,,,,,,,,,,,,,,,,,,,,,,,,,,,,,,,,,,,,,,,,,,,,,,,,,353.86934330000076,353.9018426000039,353.9018426000039,355.87250610000046,2.0,['period'],[1.160367899996345],[None],355.8726508000036,355.90228090000164,357.86938109999755,355.90228090000164,355.90228090000164,357.91619390000415,,,,,,,,,,,,349.8986997000029,349.93599270000414,350.90244180000445,350.90244180000445,350.9352927,353.869111400003,comma,1,2.93476599999849,None,,,,,,,,,,,,,,,,,,,,,,,,,,,,,,,,,,,,,,,,,,,,,,,,,,,,,,,,,,005,001,2024-05-30_13h59.48.753,ps,2023.2.3,30.054262971249283,2024-05-30 13h59.59.001058 -0400,
mini_blocks/3dp_single_mini_block_2.xlsx,"*Break*
Entering the 3D SIMULTANEOUS block
Rotation is Counter/Clockwise
Press <4> to continue",0,1,0,3D,p,60,False,False,None,obj4,280,340,output_pairs/3Dp_60/3Dp_60_obj_4_280_to_340deg.png,None,1619,comma,0,1,1,1,0,13,13,13,,,,,,,,,,,,,357.91619390000415,,,,,,,,,,,,,,,,,,,,,,,,,,,,,,,,,,,,,,,,,,,,,,,,,,,362.29955970000447,362.3352782000002,362.3352782000002,364.3098824999979,3.0,['slash'],[1.6140008000002126],[None],364.3100326999993,364.341702800004,366.34180339999875,,,,,,,,,,,,,,,357.8695504999996,357.91619390000415,358.8749781000006,358.8749781000006,358.94104530000186,362.29920819999825,comma,1,3.419396400000551,None,,,,,,,,,,,,,,,,,,,,,,,,,,,,,,,,,,,,,,,,,,,,,,,,,,,,,,,,,,005,001,2024-05-30_13h59.48.753,ps,2023.2.3,30.054262971249283,2024-05-30 13h59.59.001058 -0400,
mini_blocks/3dp_single_mini_block_2.xlsx,"*Break*
Entering the 3D SIMULTANEOUS block
Rotation is Counter/Clockwise
Press <4> to continue",0,1,0,3D,p,180,False,False,None,obj7,140,320,output_pairs/3Dp_180/3Dp_180_obj_7_140_to_320deg.png,None,763,comma,0,1,1,1,0,14,14,14,,,,,,,,,,,,,366.3942076000021,,,,,,,,,,,,,,,,,,,,,,,,,,,,,,,,,,,,,,,,,,,,,,,,,,,375.53225810000004,375.5643994999991,375.5643994999991,377.5375595000005,2.0,['period'],[1.2325992999976734],[None],377.5377093999996,377.5690881999981,379.5690562000018,,,,,,,,,,,,,,,366.3419875000036,366.3942076000021,367.33561439999903,367.33561439999903,367.3981114999988,375.5320522000038,period,0,8.166035800000827,None,,,,,,,,,,,,,,,,,,,,,,,,,,,,,,,,,,,,,,,,,,,,,,,,,,,,,,,,,,005,001,2024-05-30_13h59.48.753,ps,2023.2.3,30.054262971249283,2024-05-30 13h59.59.001058 -0400,
mini_blocks/3dp_single_mini_block_2.xlsx,"*Break*
Entering the 3D SIMULTANEOUS block
Rotation is Counter/Clockwise
Press <4> to continue",0,1,0,3D,p,0,False,False,None,obj1,40,None,output_pairs/3Dp_0/3Dp_0_obj_13_40deg.png,None,2153,comma,0,1,1,1,0,15,15,15,,,,,,,,,,,,,379.61042740000266,,,,,,,,,,,,,,,,,,,,,,,,,,,,,,,,,,,,,,,,,,,,,,,,,,,381.9988941999982,382.03118769999855,382.03118769999855,384.0042620000022,4.0,['rshift'],[0.6867529999944963],[None],384.00441230000433,384.0357734999998,386.0087368000022,,,,,,,,,,,,,,,379.5692341000031,379.61042740000266,380.53574669999944,380.53574669999944,380.63532320000377,381.9986843000006,comma,1,1.446289200001047,None,,,,,,,,,,,,,,,,,,,,,,,,,,,,,,,,,,,,,,,,,,,,,,,,,,,,,,,,,,005,001,2024-05-30_13h59.48.753,ps,2023.2.3,30.054262971249283,2024-05-30 13h59.59.001058 -0400,
mini_blocks/3dp_single_mini_block_2.xlsx,"*Break*
Entering the 3D SIMULTANEOUS block
Rotation is Counter/Clockwise
Press <4> to continue",0,1,0,,,,,,,,,,,,,,0,1,1,1,,,,,,,,,,,,,,,,,,,,,,,,,,,,,,,,,,,,,,,,,,,,,,,,,,,,,,,,,,,,,,,,,,,,,,,,,,,,,,,,,,386.02182360000006,386.03704760000255,386.03704760000255,394.0331584000014,2.0,['period'],[7.0486390000005485],[None],394.033351099999,394.03337699999975,None,,,,,,,,,,,,,,,,,,,,,,,,,,,,,,,,,,,,,,,,,,,,,,,,,,,,,,,,,,,,,,,,,,,,005,001,2024-05-30_13h59.48.753,ps,2023.2.3,30.054262971249283,2024-05-30 13h59.59.001058 -0400,
mini_blocks/3dp_wm_mini_block_3.xlsx,"*Break*
Entering the 3D WORKING MEMORY block
Rotation is Counter/Clockwise
Press <4> to continue",1,0,0,3D,p,120,False,True,14,obj5,300,60,output_pairs/3Dp_120_WM/3Dp_120_WM_14_1_obj_5_300deg.png,output_pairs/3Dp_120_WM/3Dp_120_WM_14_2_obj_5_60deg.png,344,comma,0,2,2,2,,,,,0,0,0,0,,,,,,,,,399.7350862000021,,,,,,,,,,,,,,,,,,,,,,,,,,,,,,394.03353069999866,394.0646046000038,394.0646046000038,399.66563229999883,rshift,5.58204090000072,None,399.67787359999784,399.7350862000021,400.67514559999836,400.7315185999978,404.7085937000011,404.67514120000124,405.697954700001,405.697954700001,405.697954700001,408.30326259999856,comma,1,2.580021100002341,None,408.30356459999894,408.33605530000204,408.33605530000204,410.3332769999979,3.0,['slash'],[1.0295421999981045],[None],410.33355210000445,410.36448380000365,412.3360924000008,,,,,,,,,,,,,,,,,,,,,,,,,,,,,,,,,,,,,,,,,,,,,,,,,,,,,,,,,,,,,,,,,,,,,,,,,,,,,,,,,,005,001,2024-05-30_13h59.48.753,ps,2023.2.3,30.054262971249283,2024-05-30 13h59.59.001058 -0400,
mini_blocks/3dp_wm_mini_block_3.xlsx,"*Break*
Entering the 3D WORKING MEMORY block
Rotation is Counter/Clockwise
Press <4> to continue",1,0,0,3D,p,120,False,True,19,obj1,20,140,output_pairs/3Dp_120_WM/3Dp_120_WM_19_1_obj_10_20deg.png,output_pairs/3Dp_120_WM/3Dp_120_WM_19_2_obj_10_140deg.png,346,comma,0,2,2,2,,,,,0,1,1,1,,,,,,,,,412.38334210000176,,,,,,,,,,,,,,,,,,,,,,,,,,,,,,,,,,,,,412.3362935999976,412.38334210000176,413.3087235999992,413.4024455000035,417.33600619999925,417.3026428000012,418.3315767000022,418.3315767000022,418.3315767000022,420.16568830000324,comma,1,1.8012971999996807,None,420.1659406000035,420.1978218000004,420.1978218000004,422.1694043000025,3.0,['slash'],[1.0964413000037894],[None],422.16955350000353,422.1981234999985,424.17560319999757,422.1981234999985,422.1981234999985,,,,,,,,,,,,,,,,,,,,,,,,,,,,,,,,,,,,,,,,,,,,,,,,,,,,,,,,,,,,,,,,,,,,,,,,,,,,,,,,005,001,2024-05-30_13h59.48.753,ps,2023.2.3,30.054262971249283,2024-05-30 13h59.59.001058 -0400,
mini_blocks/3dp_wm_mini_block_3.xlsx,"*Break*
Entering the 3D WORKING MEMORY block
Rotation is Counter/Clockwise
Press <4> to continue",1,0,0,3D,p,0,False,True,20,sm3,20,20,output_pairs/3Dp_0_WM/3Dp_0_WM_20_1_sm_3_20deg.png,output_pairs/3Dp_0_WM/3Dp_0_WM_20_2_sm_3_20deg.png,120,comma,0,2,2,2,,,,,0,2,2,2,,,,,,,,,424.24410580000404,,,,,,,,,,,,,,,,,,,,,,,,,,,,,,,,,,,,,424.1758592000042,424.24410580000404,425.1649449000033,425.269277600004,429.16478300000017,429.19811630000186,430.2027608999997,430.1693890000024,430.1693890000024,431.10348769999837,comma,1,0.931558700001915,None,431.1036802000017,431.13605780000216,431.13605780000216,433.13317169999937,4.0,['rshift'],[0.517872600001283],[None],433.13333799999964,433.16469170000346,435.1362389999995,,,,,,,,,,,,,,,,,,,,,,,,,,,,,,,,,,,,,,,,,,,,,,,,,,,,,,,,,,,,,,,,,,,,,,,,,,,,,,,,,,005,001,2024-05-30_13h59.48.753,ps,2023.2.3,30.054262971249283,2024-05-30 13h59.59.001058 -0400,
mini_blocks/3dp_wm_mini_block_3.xlsx,"*Break*
Entering the 3D WORKING MEMORY block
Rotation is Counter/Clockwise
Press <4> to continue",1,0,0,3D,p,60,True,True,29,obj1,320,260,output_pairs/3Dp_60_M_WM/3Dp_60_M_WM_29_1_obj_14_320deg.png,output_pairs/3Dp_60_M_WM/3Dp_60_M_WM_29_2_obj_14_260deg.png,312,period,0,2,2,2,,,,,0,3,3,3,,,,,,,,,435.1936238999988,,,,,,,,,,,,,,,,,,,,,,,,,,,,,,,,,,,,,435.13660119999986,435.1936238999988,436.10283309999795,436.2087305000023,440.10273900000175,440.10273900000175,441.1086112999983,441.1086112999983,441.1086112999983,442.63259390000167,comma,0,1.5132234000047902,None,442.6329044000013,442.6650636999984,442.6650636999984,444.6355423999994,None,None,,,444.63562710000406,444.6647082999989,446.63621820000117,444.6647082999989,444.6647082999989,,,,,,,,,,,,,,,,,,,,,,,,,,,,,,,,,,,,,,,,,,,,,,,,,,,,,,,,,,,,,,,,,,,,,,,,,,,,,,,,005,001,2024-05-30_13h59.48.753,ps,2023.2.3,30.054262971249283,2024-05-30 13h59.59.001058 -0400,
mini_blocks/3dp_wm_mini_block_3.xlsx,"*Break*
Entering the 3D WORKING MEMORY block
Rotation is Counter/Clockwise
Press <4> to continue",1,0,0,3D,p,60,False,True,12,sm2,80,140,output_pairs/3Dp_60_WM/3Dp_60_WM_12_1_sm_2_80deg.png,output_pairs/3Dp_60_WM/3Dp_60_WM_12_2_sm_2_140deg.png,390,comma,0,2,2,2,,,,,0,4,4,4,,,,,,,,,446.7111189999996,,,,,,,,,,,,,,,,,,,,,,,,,,,,,,,,,,,,,446.6364953000011,446.7111189999996,447.64190280000184,447.74200360000395,451.66940479999903,451.63613550000446,452.642182399999,452.642182399999,452.642182399999,454.8657127999977,comma,1,2.2203775999951176,None,454.865904899998,454.898185500002,454.898185500002,456.8712854000041,3.0,['slash'],[1.1876007999962894],[None],456.87152040000365,456.9027242000011,458.8694366999989,,,,,,,,,,,,,,,,,,,,,,,,,,,,,,,,,,,,,,,,,,,,,,,,,,,,,,,,,,,,,,,,,,,,,,,,,,,,,,,,,,005,001,2024-05-30_13h59.48.753,ps,2023.2.3,30.054262971249283,2024-05-30 13h59.59.001058 -0400,
mini_blocks/3dp_wm_mini_block_3.xlsx,"*Break*
Entering the 3D WORKING MEMORY block
Rotation is Counter/Clockwise
Press <4> to continue",1,0,0,3D,p,120,True,True,2,obj1,220,340,output_pairs/3Dp_120_M_WM/3Dp_120_M_WM_02_1_obj_14_220deg.png,output_pairs/3Dp_120_M_WM/3Dp_120_M_WM_02_2_obj_14_340deg.png,662,period,0,2,2,2,,,,,0,5,5,5,,,,,,,,,458.9217149000033,,,,,,,,,,,,,,,,,,,,,,,,,,,,,,,,,,,,,458.86962660000427,458.9217149000033,459.8754442999998,459.9318682000012,463.89806050000334,463.89806050000334,464.89816229999997,464.86498869999923,464.86498869999923,467.06559520000155,period,1,2.197024800007057,None,467.06579280000005,467.0980656000029,467.0980656000029,469.07118400000036,2.0,['period'],[1.547652499997639],[None],469.071334799999,469.0985578000036,471.0755494000041,,,,,,,,,,,,,,,,,,,,,,,,,,,,,,,,,,,,,,,,,,,,,,,,,,,,,,,,,,,,,,,,,,,,,,,,,,,,,,,,,,005,001,2024-05-30_13h59.48.753,ps,2023.2.3,30.054262971249283,2024-05-30 13h59.59.001058 -0400,
mini_blocks/3dp_wm_mini_block_3.xlsx,"*Break*
Entering the 3D WORKING MEMORY block
Rotation is Counter/Clockwise
Press <4> to continue",1,0,0,3D,p,180,False,True,16,sm4,200,20,output_pairs/3Dp_180_WM/3Dp_60_WM_16_1_sm_4_200deg.png,output_pairs/3Dp_180_WM/3Dp_60_WM_16_2_sm_4_20deg.png,488,comma,0,2,2,2,,,,,0,6,6,6,,,,,,,,,471.1462285000016,,,,,,,,,,,,,,,,,,,,,,,,,,,,,,,,,,,,,471.07573180000327,471.1462285000016,472.06518869999854,472.16522480000276,476.06484530000307,476.06484530000307,477.0696307000035,477.0696307000035,477.0696307000035,479.5991259000002,comma,1,2.527458199998364,None,479.5993307000026,479.63145980000263,479.63145980000263,481.60478670000157,3.0,['slash'],[0.6868356000049971],[None],481.6049505999981,481.6363552000039,483.63201539999864,,,,,,,,,,,,,,,,,,,,,,,,,,,,,,,,,,,,,,,,,,,,,,,,,,,,,,,,,,,,,,,,,,,,,,,,,,,,,,,,,,005,001,2024-05-30_13h59.48.753,ps,2023.2.3,30.054262971249283,2024-05-30 13h59.59.001058 -0400,
mini_blocks/3dp_wm_mini_block_3.xlsx,"*Break*
Entering the 3D WORKING MEMORY block
Rotation is Counter/Clockwise
Press <4> to continue",1,0,0,3D,p,60,True,True,13,obj5,300,0,output_pairs/3Dp_60_M_WM/3Dp_60_M_WM_13_1_obj_5_300deg.png,output_pairs/3Dp_60_M_WM/3Dp_60_M_WM_13_2_obj_5_0deg.png,305,period,0,2,2,2,,,,,0,7,7,7,,,,,,,,,483.6963093000013,,,,,,,,,,,,,,,,,,,,,,,,,,,,,,,,,,,,,483.63234229999944,483.6963093000013,484.59850639999786,484.69852979999996,488.60299769999983,488.60299769999983,489.60298760000296,489.60298760000296,489.60298760000296,491.1325749000025,period,1,1.5227756000022055,None,491.1327911000044,491.1651148000019,491.1651148000019,493.13790439999866,2.0,['period'],[1.1045163000017055],[None],493.1380560000034,493.16972299999907,495.14244340000005,,,,,,,,,,,,,,,,,,,,,,,,,,,,,,,,,,,,,,,,,,,,,,,,,,,,,,,,,,,,,,,,,,,,,,,,,,,,,,,,,,005,001,2024-05-30_13h59.48.753,ps,2023.2.3,30.054262971249283,2024-05-30 13h59.59.001058 -0400,
mini_blocks/3dp_wm_mini_block_3.xlsx,"*Break*
Entering the 3D WORKING MEMORY block
Rotation is Counter/Clockwise
Press <4> to continue",1,0,0,3D,p,0,False,True,31,sm3,60,60,output_pairs/3Dp_0_WM/3Dp_0_WM_31_1_sm_3_60deg.png,output_pairs/3Dp_0_WM/3Dp_0_WM_31_2_sm_3_60deg.png,100,comma,0,2,2,2,,,,,0,8,8,8,,,,,,,,,495.207733700001,,,,,,,,,,,,,,,,,,,,,,,,,,,,,,,,,,,,,495.14273929999763,495.207733700001,496.1319158000042,496.23198820000107,500.1320515000043,500.1320515000043,501.1363304999977,501.1363304999977,501.1363304999977,502.23230630000035,comma,1,1.0933740999971633,None,502.2325305999984,502.2650556000008,502.2650556000008,504.23576709999907,4.0,['rshift'],[0.6128668999954243],[None],504.2359183000008,504.26505200000247,506.2423990000025,504.26505200000247,504.26505200000247,,,,,,,,,,,,,,,,,,,,,,,,,,,,,,,,,,,,,,,,,,,,,,,,,,,,,,,,,,,,,,,,,,,,,,,,,,,,,,,,005,001,2024-05-30_13h59.48.753,ps,2023.2.3,30.054262971249283,2024-05-30 13h59.59.001058 -0400,
mini_blocks/3dp_wm_mini_block_3.xlsx,"*Break*
Entering the 3D WORKING MEMORY block
Rotation is Counter/Clockwise
Press <4> to continue",1,0,0,3D,p,60,False,True,7,sm4,260,320,output_pairs/3Dp_60_WM/3Dp_60_WM_07_1_sm_4_260deg.png,output_pairs/3Dp_60_WM/3Dp_60_WM_07_2_sm_4_320deg.png,389,comma,0,2,2,2,,,,,0,9,9,9,,,,,,,,,506.3249313999986,,,,,,,,,,,,,,,,,,,,,,,,,,,,,,,,,,,,,506.2425837999981,506.3249313999986,507.23197749999963,507.336312600004,511.23176629999944,511.23176629999944,512.2363834999996,512.2363834999996,512.2363834999996,515.3660397999993,period,0,3.1134381000010762,None,515.3662459000043,515.3985202999975,515.3985202999975,517.3713456000041,2.0,['period'],[1.4709763999999268],[None],517.3714953000017,517.4029813000016,519.3987112000032,,,,,,,,,,,,,,,,,,,,,,,,,,,,,,,,,,,,,,,,,,,,,,,,,,,,,,,,,,,,,,,,,,,,,,,,,,,,,,,,,,005,001,2024-05-30_13h59.48.753,ps,2023.2.3,30.054262971249283,2024-05-30 13h59.59.001058 -0400,
mini_blocks/3dp_wm_mini_block_3.xlsx,"*Break*
Entering the 3D WORKING MEMORY block
Rotation is Counter/Clockwise
Press <4> to continue",1,0,0,3D,p,180,False,True,19,obj1,280,100,output_pairs/3Dp_180_WM/3Dp_60_WM_19_1_obj_12_280deg.png,output_pairs/3Dp_180_WM/3Dp_60_WM_19_2_obj_12_100deg.png,498,comma,0,2,2,2,,,,,0,10,10,10,,,,,,,,,519.4509911999994,,,,,,,,,,,,,,,,,,,,,,,,,,,,,,,,,,,,,519.3989576000022,519.4509911999994,520.3695999999982,520.4696337999994,524.3697087000037,524.3697087000037,525.3696999000022,525.3696999000022,525.3696999000022,527.3993217000025,period,0,1.9959094999940135,None,527.3995274000044,527.4318102000034,527.4318102000034,529.4052280000033,2.0,['period'],[1.1579997000008007],[None],529.4054049000042,529.4364064000038,531.4364047999989,,,,,,,,,,,,,,,,,,,,,,,,,,,,,,,,,,,,,,,,,,,,,,,,,,,,,,,,,,,,,,,,,,,,,,,,,,,,,,,,,,005,001,2024-05-30_13h59.48.753,ps,2023.2.3,30.054262971249283,2024-05-30 13h59.59.001058 -0400,
mini_blocks/3dp_wm_mini_block_3.xlsx,"*Break*
Entering the 3D WORKING MEMORY block
Rotation is Counter/Clockwise
Press <4> to continue",1,0,0,3D,p,120,True,True,12,sm5,320,80,output_pairs/3Dp_120_M_WM/3Dp_120_M_WM_12_1_sm_5_320deg.png,output_pairs/3Dp_120_M_WM/3Dp_120_M_WM_12_2_sm_5_80deg.png,650,period,0,2,2,2,,,,,0,11,11,11,,,,,,,,,531.4874387000018,,,,,,,,,,,,,,,,,,,,,,,,,,,,,,,,,,,,,531.4365890000045,531.4874387000018,532.3987395000004,532.4987394999989,536.4030457000044,536.4030457000044,537.4321704000031,537.3989900000015,537.3989900000015,541.1325395000022,period,1,3.726805099999183,None,541.1327376000045,541.1649956000037,541.1649956000037,543.1382048000014,2.0,['period'],[1.0166070999985095],[None],543.1383553999985,543.1697980000026,545.1698095000029,,,,,,,,,,,,,,,,,,,,,,,,,,,,,,,,,,,,,,,,,,,,,,,,,,,,,,,,,,,,,,,,,,,,,,,,,,,,,,,,,,005,001,2024-05-30_13h59.48.753,ps,2023.2.3,30.054262971249283,2024-05-30 13h59.59.001058 -0400,
mini_blocks/3dp_wm_mini_block_3.xlsx,"*Break*
Entering the 3D WORKING MEMORY block
Rotation is Counter/Clockwise
Press <4> to continue",1,0,0,3D,p,180,True,True,11,obj1,120,300,output_pairs/3Dp_180_M_WM/3Dp_180_M_WM_11_1_obj_12_120deg.png,output_pairs/3Dp_180_M_WM/3Dp_180_M_WM_11_2_obj_12_300deg.png,36,period,0,2,2,2,,,,,0,12,12,12,,,,,,,,,545.2172664000027,,,,,,,,,,,,,,,,,,,,,,,,,,,,,,,,,,,,,545.1699866999988,545.2172664000027,546.1424566999995,546.2321204000036,550.165033199999,550.1317057999986,551.131884800001,551.131884800001,551.131884800001,554.4328381000014,period,1,3.2905886999942595,None,554.433045800004,554.4651660000018,554.4651660000018,556.4361284999977,3.0,['slash'],[1.6129651999945054],[None],556.4362948999988,556.4698222000006,558.4425647000025,556.4698222000006,556.4698222000006,,,,,,,,,,,,,,,,,,,,,,,,,,,,,,,,,,,,,,,,,,,,,,,,,,,,,,,,,,,,,,,,,,,,,,,,,,,,,,,,005,001,2024-05-30_13h59.48.753,ps,2023.2.3,30.054262971249283,2024-05-30 13h59.59.001058 -0400,
mini_blocks/3dp_wm_mini_block_3.xlsx,"*Break*
Entering the 3D WORKING MEMORY block
Rotation is Counter/Clockwise
Press <4> to continue",1,0,0,3D,p,0,True,True,12,obj7,240,240,output_pairs/3Dp_0_M_WM/3Dp_0_M_WM_12_1_obj_7_240deg.png,output_pairs/3Dp_0_M_WM/3Dp_0_M_WM_12_2_obj_7_240deg.png,522,period,0,2,2,2,,,,,0,13,13,13,,,,,,,,,558.5052512999973,,,,,,,,,,,,,,,,,,,,,,,,,,,,,,,,,,,,,558.4427852000008,558.5052512999973,559.4321907999984,559.5322232000035,563.4320210000005,563.4320210000005,564.4367198000036,564.4367198000036,564.4367198000036,566.8995536000002,period,1,2.43325050000567,None,566.8997627999997,566.9318819000036,566.9318819000036,568.9050084999981,3.0,['slash'],[1.2013764999937848],[None],568.9051668000029,568.9365886000014,570.9366759999975,,,,,,,,,,,,,,,,,,,,,,,,,,,,,,,,,,,,,,,,,,,,,,,,,,,,,,,,,,,,,,,,,,,,,,,,,,,,,,,,,,005,001,2024-05-30_13h59.48.753,ps,2023.2.3,30.054262971249283,2024-05-30 13h59.59.001058 -0400,
mini_blocks/3dp_wm_mini_block_3.xlsx,"*Break*
Entering the 3D WORKING MEMORY block
Rotation is Counter/Clockwise
Press <4> to continue",1,0,0,3D,p,0,True,True,17,obj4,160,160,output_pairs/3Dp_0_M_WM/3Dp_0_M_WM_17_1_obj_4_160deg.png,output_pairs/3Dp_0_M_WM/3Dp_0_M_WM_17_2_obj_4_160deg.png,517,period,0,2,2,2,,,,,0,14,14,14,,,,,,,,,570.989613400001,,,,,,,,,,,,,,,,,,,,,,,,,,,,,,,,,,,,,570.9368673999998,570.989613400001,571.8989923000045,571.9989829000042,575.9032597000041,575.9032597000041,576.903401800002,576.903401800002,576.903401800002,579.4324650999988,period,1,2.510794399997394,None,579.4326603000009,579.4652133999989,579.4652133999989,581.4362422999984,3.0,['slash'],[1.8775976000033552],[None],581.436415199998,581.469941000003,583.465770200004,581.469941000003,581.469941000003,,,,,,,,,,,,,,,,,,,,,,,,,,,,,,,,,,,,,,,,,,,,,,,,,,,,,,,,,,,,,,,,,,,,,,,,,,,,,,,,005,001,2024-05-30_13h59.48.753,ps,2023.2.3,30.054262971249283,2024-05-30 13h59.59.001058 -0400,
mini_blocks/3dp_wm_mini_block_3.xlsx,"*Break*
Entering the 3D WORKING MEMORY block
Rotation is Counter/Clockwise
Press <4> to continue",1,0,0,3D,p,180,True,True,23,obj1,220,40,output_pairs/3Dp_180_M_WM/3Dp_180_M_WM_23_1_obj_12_220deg.png,output_pairs/3Dp_180_M_WM/3Dp_180_M_WM_23_2_obj_12_40deg.png,48,period,0,2,2,2,,,,,0,15,15,15,,,,,,,,,583.5307208000013,,,,,,,,,,,,,,,,,,,,,,,,,,,,,,,,,,,,,583.4659671000045,583.5307208000013,584.4426633999974,584.542818599999,588.4699868000025,588.436638500003,589.465569,589.436612700003,589.436612700003,594.5039924000012,comma,0,5.065302499999234,None,594.5042040000044,594.5367248000039,594.5367248000039,596.533975899998,2.0,['period'],[1.029285799995705],[None],596.5341356999998,596.5654071000026,598.5322998999982,,,,,,,,,,,,,,,,,,,,,,,,,,,,,,,,,,,,,,,,,,,,,,,,,,,,,,,,,,,,,,,,,,,,,,,,,,,,,,,,,,005,001,2024-05-30_13h59.48.753,ps,2023.2.3,30.054262971249283,2024-05-30 13h59.59.001058 -0400,
mini_blocks/3dp_wm_mini_block_3.xlsx,"*Break*
Entering the 3D WORKING MEMORY block
Rotation is Counter/Clockwise
Press <4> to continue",1,0,0,,,,,,,,,,,,,,0,2,2,2,,,,,,,,,,,,,,,,,,,,,,,,,,,,,,,,,,,,,,,,,,,,,,,,,,,,,,,,,,,,,,,,,,,,,,,,,,,,,,,,,,598.5324345000045,598.565574799999,598.565574799999,606.5341977999997,2.0,['period'],[3.9453195000023698],[None],606.5344722000009,606.5344976999986,None,,,,,,,,,,,,,,,,,,,,,,,,,,,,,,,,,,,,,,,,,,,,,,,,,,,,,,,,,,,,,,,,,,,,005,001,2024-05-30_13h59.48.753,ps,2023.2.3,30.054262971249283,2024-05-30 13h59.59.001058 -0400,
mini_blocks/3dp_wm_mini_block_2.xlsx,"*Break*
Entering the 3D WORKING MEMORY block
Rotation is Counter/Clockwise
Press <4> to continue",1,0,1,3D,p,60,True,True,24,sm3,220,280,output_pairs/3Dp_60_M_WM/3Dp_60_M_WM_24_1_sm_3_220deg.png,output_pairs/3Dp_60_M_WM/3Dp_60_M_WM_24_2_sm_3_280deg.png,299,period,0,3,3,3,,,,,0,0,0,0,,,,,,,,,609.1825370000006,,,,,,,,,,,,,,,,,,,,,,,,,,,,,,606.5346602999998,606.5654126000009,606.5654126000009,609.1042690000031,rshift,2.535728000002564,None,609.1167618000036,609.1825370000006,610.103584299999,610.2036329999974,614.1034249000004,614.1367329999994,615.1368003000025,615.1034951000038,615.1034951000038,616.9663584000009,period,1,1.85448510000424,None,616.9667085000037,616.9987843999988,616.9987843999988,618.9718405000021,None,None,,,618.971972899999,619.0034172000014,620.9700739000036,,,,,,,,,,,,,,,,,,,,,,,,,,,,,,,,,,,,,,,,,,,,,,,,,,,,,,,,,,,,,,,,,,,,,,,,,,,,,,,,,,005,001,2024-05-30_13h59.48.753,ps,2023.2.3,30.054262971249283,2024-05-30 13h59.59.001058 -0400,
mini_blocks/3dp_wm_mini_block_2.xlsx,"*Break*
Entering the 3D WORKING MEMORY block
Rotation is Counter/Clockwise
Press <4> to continue",1,0,1,3D,p,60,False,True,5,obj1,0,60,output_pairs/3Dp_60_WM/3Dp_60_WM_05_1_obj_12_0deg.png,output_pairs/3Dp_60_WM/3Dp_60_WM_05_2_obj_12_60deg.png,394,comma,0,3,3,3,,,,,0,1,1,1,,,,,,,,,621.0185502000022,,,,,,,,,,,,,,,,,,,,,,,,,,,,,,,,,,,,,620.9702513000011,621.0185502000022,621.9658557000002,622.036714300004,625.970139099998,625.970139099998,626.9702027000021,626.9702027000021,626.9702027000021,629.5999547000029,comma,1,2.6122875999935786,None,629.6002035999991,629.6321934000007,629.6321934000007,631.6053307999973,2.0,['period'],[1.0769661000013002],[None],631.6055894000019,631.6367842000036,633.6035190000039,,,,,,,,,,,,,,,,,,,,,,,,,,,,,,,,,,,,,,,,,,,,,,,,,,,,,,,,,,,,,,,,,,,,,,,,,,,,,,,,,,005,001,2024-05-30_13h59.48.753,ps,2023.2.3,30.054262971249283,2024-05-30 13h59.59.001058 -0400,
mini_blocks/3dp_wm_mini_block_2.xlsx,"*Break*
Entering the 3D WORKING MEMORY block
Rotation is Counter/Clockwise
Press <4> to continue",1,0,1,3D,p,0,False,True,18,obj2,280,280,output_pairs/3Dp_0_WM/3Dp_0_WM_18_1_obj_2_280deg.png,output_pairs/3Dp_0_WM/3Dp_0_WM_18_2_obj_2_280deg.png,117,comma,0,3,3,3,,,,,0,2,2,2,,,,,,,,,633.6609118999986,,,,,,,,,,,,,,,,,,,,,,,,,,,,,,,,,,,,,633.6037098000015,633.6609118999986,634.6095341000037,634.6761164999989,638.6322833000013,638.6322833000013,639.6369021999999,639.6035486000037,639.6035486000037,640.6000827000025,comma,1,0.9782046999971499,None,640.6002703999984,640.6369112000029,640.6369112000029,642.6348795000013,4.0,['rshift'],[0.5852497000014409],[None],642.6350461000038,642.6656262000033,644.6037945999997,,,,,,,,,,,,,,,,,,,,,,,,,,,,,,,,,,,,,,,,,,,,,,,,,,,,,,,,,,,,,,,,,,,,,,,,,,,,,,,,,,005,001,2024-05-30_13h59.48.753,ps,2023.2.3,30.054262971249283,2024-05-30 13h59.59.001058 -0400,
mini_blocks/3dp_wm_mini_block_2.xlsx,"*Break*
Entering the 3D WORKING MEMORY block
Rotation is Counter/Clockwise
Press <4> to continue",1,0,1,3D,p,180,True,True,24,obj1,300,120,output_pairs/3Dp_180_M_WM/3Dp_180_M_WM_24_1_obj_15_300deg.png,output_pairs/3Dp_180_M_WM/3Dp_180_M_WM_24_2_obj_15_120deg.png,44,period,0,3,3,3,,,,,0,3,3,3,,,,,,,,,644.6532822000008,,,,,,,,,,,,,,,,,,,,,,,,,,,,,,,,,,,,,644.6040036999984,644.6532822000008,645.609584400001,645.6762630000012,649.636940299999,649.603525999999,650.6096513000011,650.6096513000011,650.6096513000011,655.4042871999991,period,1,4.771563000002061,None,655.4044886999982,655.4369169999991,655.4369169999991,657.4346924999991,None,None,,,657.4347907999982,657.4656558999995,659.4371927000029,,,,,,,,,,,,,,,,,,,,,,,,,,,,,,,,,,,,,,,,,,,,,,,,,,,,,,,,,,,,,,,,,,,,,,,,,,,,,,,,,,005,001,2024-05-30_13h59.48.753,ps,2023.2.3,30.054262971249283,2024-05-30 13h59.59.001058 -0400,
mini_blocks/3dp_wm_mini_block_2.xlsx,"*Break*
Entering the 3D WORKING MEMORY block
Rotation is Counter/Clockwise
Press <4> to continue",1,0,1,3D,p,120,True,True,17,obj3,40,280,output_pairs/3Dp_120_M_WM/3Dp_120_M_WM_17_1_obj_3_40deg.png,output_pairs/3Dp_120_M_WM/3Dp_120_M_WM_17_2_obj_3_280deg.png,671,period,0,3,3,3,,,,,0,4,4,4,,,,,,,,,659.5057018000007,,,,,,,,,,,,,,,,,,,,,,,,,,,,,,,,,,,,,659.4373821000045,659.5057018000007,660.4097207000013,660.4993447000015,664.4324553999977,664.4324553999977,665.4370026000033,665.4036865000016,665.4036865000016,666.8768477999984,period,1,1.4583683999953791,None,666.877044300003,666.9095906000002,666.9095906000002,668.9011095000023,3.0,['slash'],[1.160129700001562],[None],668.9012675999984,668.9323425000039,670.899519300001,,,,,,,,,,,,,,,,,,,,,,,,,,,,,,,,,,,,,,,,,,,,,,,,,,,,,,,,,,,,,,,,,,,,,,,,,,,,,,,,,,005,001,2024-05-30_13h59.48.753,ps,2023.2.3,30.054262971249283,2024-05-30 13h59.59.001058 -0400,
mini_blocks/3dp_wm_mini_block_2.xlsx,"*Break*
Entering the 3D WORKING MEMORY block
Rotation is Counter/Clockwise
Press <4> to continue",1,0,1,3D,p,0,True,True,4,obj1,100,100,output_pairs/3Dp_0_M_WM/3Dp_0_M_WM_04_1_obj_10_100deg.png,output_pairs/3Dp_0_M_WM/3Dp_0_M_WM_04_2_obj_10_100deg.png,519,period,0,3,3,3,,,,,0,5,5,5,,,,,,,,,670.9646078000005,,,,,,,,,,,,,,,,,,,,,,,,,,,,,,,,,,,,,670.8997232999973,670.9646078000005,671.9036756999994,671.9660651000013,675.9325299999982,675.8991528000042,676.9036627000023,676.9036627000023,676.9036627000023,681.404432000003,comma,0,4.487000500004797,None,681.4046296000015,681.437105500001,681.437105500001,683.4074758999996,2.0,['period'],[1.0968683999963105],[None],683.4076189999978,683.4370804999999,685.4328430000023,683.4370804999999,683.4370804999999,,,,,,,,,,,,,,,,,,,,,,,,,,,,,,,,,,,,,,,,,,,,,,,,,,,,,,,,,,,,,,,,,,,,,,,,,,,,,,,,005,001,2024-05-30_13h59.48.753,ps,2023.2.3,30.054262971249283,2024-05-30 13h59.59.001058 -0400,
mini_blocks/3dp_wm_mini_block_2.xlsx,"*Break*
Entering the 3D WORKING MEMORY block
Rotation is Counter/Clockwise
Press <4> to continue",1,0,1,3D,p,180,True,True,32,obj6,320,140,output_pairs/3Dp_180_M_WM/3Dp_180_M_WM_32_1_obj_6_320deg.png,output_pairs/3Dp_180_M_WM/3Dp_180_M_WM_32_2_obj_6_140deg.png,50,period,0,3,3,3,,,,,0,6,6,6,,,,,,,,,685.5137103000015,,,,,,,,,,,,,,,,,,,,,,,,,,,,,,,,,,,,,685.4331181000016,685.5137103000015,686.4327585999999,686.5429982999995,690.4328510999985,690.4037231000038,691.3994633000038,691.3994633000038,691.3994633000038,694.0332571000035,comma,0,2.606337799996254,None,694.0334617000044,694.0658394999991,694.0658394999991,696.0387601999973,None,None,,,696.0388480999973,696.0703761000041,698.0432375000019,,,,,,,,,,,,,,,,,,,,,,,,,,,,,,,,,,,,,,,,,,,,,,,,,,,,,,,,,,,,,,,,,,,,,,,,,,,,,,,,,,005,001,2024-05-30_13h59.48.753,ps,2023.2.3,30.054262971249283,2024-05-30 13h59.59.001058 -0400,
mini_blocks/3dp_wm_mini_block_2.xlsx,"*Break*
Entering the 3D WORKING MEMORY block
Rotation is Counter/Clockwise
Press <4> to continue",1,0,1,3D,p,60,True,True,3,obj1,0,60,output_pairs/3Dp_60_M_WM/3Dp_60_M_WM_03_1_obj_15_0deg.png,output_pairs/3Dp_60_M_WM/3Dp_60_M_WM_03_2_obj_15_60deg.png,292,period,0,3,3,3,,,,,0,7,7,7,,,,,,,,,698.1201884000038,,,,,,,,,,,,,,,,,,,,,,,,,,,,,,,,,,,,,698.0434298000037,698.1201884000038,699.0327767999988,699.132783400004,703.0325333000001,703.0325333000001,704.0325064999997,704.0325064999997,704.0325064999997,705.571070500002,comma,0,1.5175850999949034,None,705.5712611999988,705.6038776999994,705.6038776999994,707.6011591999995,3.0,['slash'],[1.001232800001162],[None],707.6013157999987,707.6323981000023,709.5994606000022,,,,,,,,,,,,,,,,,,,,,,,,,,,,,,,,,,,,,,,,,,,,,,,,,,,,,,,,,,,,,,,,,,,,,,,,,,,,,,,,,,005,001,2024-05-30_13h59.48.753,ps,2023.2.3,30.054262971249283,2024-05-30 13h59.59.001058 -0400,
mini_blocks/3dp_wm_mini_block_2.xlsx,"*Break*
Entering the 3D WORKING MEMORY block
Rotation is Counter/Clockwise
Press <4> to continue",1,0,1,3D,p,60,False,True,25,obj1,0,60,output_pairs/3Dp_60_WM/3Dp_60_WM_25_1_obj_13_0deg.png,output_pairs/3Dp_60_WM/3Dp_60_WM_25_2_obj_13_60deg.png,403,comma,0,3,3,3,,,,,0,8,8,8,,,,,,,,,709.6591079999998,,,,,,,,,,,,,,,,,,,,,,,,,,,,,,,,,,,,,709.5998500999995,709.6591079999998,710.5706160000045,710.6707232999979,714.5705162000013,714.5705162000013,715.5705775000024,715.5705775000024,715.5705775000024,717.800118799998,comma,1,2.1956378999966546,None,717.800324900003,717.8325552000024,717.8325552000024,719.8054257999975,2.0,['period'],[0.630179899999348],[None],719.8055749999985,719.8372020000024,721.8329306000014,,,,,,,,,,,,,,,,,,,,,,,,,,,,,,,,,,,,,,,,,,,,,,,,,,,,,,,,,,,,,,,,,,,,,,,,,,,,,,,,,,005,001,2024-05-30_13h59.48.753,ps,2023.2.3,30.054262971249283,2024-05-30 13h59.59.001058 -0400,
mini_blocks/3dp_wm_mini_block_2.xlsx,"*Break*
Entering the 3D WORKING MEMORY block
Rotation is Counter/Clockwise
Press <4> to continue",1,0,1,3D,p,0,True,True,30,obj1,100,100,output_pairs/3Dp_0_M_WM/3Dp_0_M_WM_30_1_obj_11_100deg.png,output_pairs/3Dp_0_M_WM/3Dp_0_M_WM_30_2_obj_11_100deg.png,520,period,0,3,3,3,,,,,0,9,9,9,,,,,,,,,721.8990352000037,,,,,,,,,,,,,,,,,,,,,,,,,,,,,,,,,,,,,721.8331628000014,721.8990352000037,722.799571800002,722.8996277999977,726.8039102999974,726.8039102999974,727.8039009999993,727.8039009999993,727.8039009999993,731.033502600003,comma,0,3.2093564000024344,None,731.0336994000027,731.0660907999991,731.0660907999991,733.0389718000006,3.0,['slash'],[0.9642649999950663],[None],733.0391187999994,733.0663386000015,735.033502600003,,,735.0849795000031,,,,,,,,,,,,,,,,,,,,,,,,,,,,,,,,,,,,,,,,,,,,,,,,,,,,,,,,,,,,,,,,,,,,,,,,,,,,,,,005,001,2024-05-30_13h59.48.753,ps,2023.2.3,30.054262971249283,2024-05-30 13h59.59.001058 -0400,
mini_blocks/3dp_wm_mini_block_2.xlsx,"*Break*
Entering the 3D WORKING MEMORY block
Rotation is Counter/Clockwise
Press <4> to continue",1,0,1,3D,p,0,False,True,7,obj8,240,240,output_pairs/3Dp_0_WM/3Dp_0_WM_07_1_obj_8_240deg.png,output_pairs/3Dp_0_WM/3Dp_0_WM_07_2_obj_8_240deg.png,126,comma,0,3,3,3,,,,,0,10,10,10,,,,,,,,,735.0849795000031,,,,,,,,,,,,,,,,,,,,,,,,,,,,,,,,,,,,,735.0336831000022,735.0849795000031,736.0435667999991,736.1099255000008,740.0659674999988,740.0327365999983,741.0372989000025,741.0372989000025,741.0372989000025,742.2379736000003,comma,1,1.193177500004822,None,742.2381728000037,742.270694400002,742.270694400002,744.2680995999981,4.0,['rshift'],[0.8244654000009177],[None],744.2682677999983,744.2992459000016,746.2707915999999,,,,,,,,,,,,,,,,,,,,,,,,,,,,,,,,,,,,,,,,,,,,,,,,,,,,,,,,,,,,,,,,,,,,,,,,,,,,,,,,,,005,001,2024-05-30_13h59.48.753,ps,2023.2.3,30.054262971249283,2024-05-30 13h59.59.001058 -0400,
mini_blocks/3dp_wm_mini_block_2.xlsx,"*Break*
Entering the 3D WORKING MEMORY block
Rotation is Counter/Clockwise
Press <4> to continue",1,0,1,3D,p,180,False,True,26,obj6,120,300,output_pairs/3Dp_180_WM/3Dp_60_WM_26_1_obj_6_120deg.png,output_pairs/3Dp_180_WM/3Dp_60_WM_26_2_obj_6_300deg.png,502,comma,0,3,3,3,,,,,0,11,11,11,,,,,,,,,746.3438117999976,,,,,,,,,,,,,,,,,,,,,,,,,,,,,,,,,,,,,746.2710996000023,746.3438117999976,747.2432598000014,747.3434350000025,751.2666479000036,751.2666479000036,752.2662902000011,752.2331582000043,752.2331582000043,754.2439207999996,comma,1,1.9815463999984786,None,754.244245599999,754.2660705000017,754.2660705000017,756.2366863999996,2.0,['period'],[1.6999638999986928],[None],756.2368390999982,756.2661643000029,758.2438666000016,756.2661643000029,756.2661643000029,758.3147587999993,,,,,,,,,,,,,,,,,,,,,,,,,,,,,,,,,,,,,,,,,,,,,,,,,,,,,,,,,,,,,,,,,,,,,,,,,,,,,,,005,001,2024-05-30_13h59.48.753,ps,2023.2.3,30.054262971249283,2024-05-30 13h59.59.001058 -0400,
mini_blocks/3dp_wm_mini_block_2.xlsx,"*Break*
Entering the 3D WORKING MEMORY block
Rotation is Counter/Clockwise
Press <4> to continue",1,0,1,3D,p,120,False,True,4,obj8,100,340,output_pairs/3Dp_120_WM/3Dp_120_WM_04_1_obj_8_100deg.png,output_pairs/3Dp_120_WM/3Dp_120_WM_04_2_obj_8_340deg.png,320,comma,0,3,3,3,,,,,0,12,12,12,,,,,,,,,758.3147587999993,,,,,,,,,,,,,,,,,,,,,,,,,,,,,,,,,,,,,758.2440368000025,758.3147587999993,759.2664107000019,759.3329959999974,763.2707077000014,763.2707077000014,764.3040488000042,764.2707101999986,764.2707101999986,766.0668569000045,comma,1,1.7825771999996505,None,766.0670523000008,766.0994590999981,766.0994590999981,768.072411000001,2.0,['period'],[1.9068974000037997],[None],768.0725788999989,768.1040026999981,770.1000005000024,,,,,,,,,,,,,,,,,,,,,,,,,,,,,,,,,,,,,,,,,,,,,,,,,,,,,,,,,,,,,,,,,,,,,,,,,,,,,,,,,,005,001,2024-05-30_13h59.48.753,ps,2023.2.3,30.054262971249283,2024-05-30 13h59.59.001058 -0400,
mini_blocks/3dp_wm_mini_block_2.xlsx,"*Break*
Entering the 3D WORKING MEMORY block
Rotation is Counter/Clockwise
Press <4> to continue",1,0,1,3D,p,120,False,True,23,sm1,160,280,output_pairs/3Dp_120_WM/3Dp_120_WM_23_1_sm_1_160deg.png,output_pairs/3Dp_120_WM/3Dp_120_WM_23_2_sm_1_280deg.png,329,comma,0,3,3,3,,,,,0,13,13,13,,,,,,,,,770.1733620000014,,,,,,,,,,,,,,,,,,,,,,,,,,,,,,,,,,,,,770.1004576999985,770.1733620000014,771.066384800004,771.1997531000015,775.070801599999,775.070801599999,776.0770722000016,776.0770722000016,776.0770722000016,779.0380213000026,period,0,2.953487999999197,None,779.0382817999998,779.0664264000006,779.0664264000006,781.0366542999982,2.0,['period'],[1.0769420000069658],[None],781.0368079000036,781.0660351999977,783.0379549999998,781.0660351999977,781.0660351999977,783.0884638999996,,,,,,,,,,,,,,,,,,,,,,,,,,,,,,,,,,,,,,,,,,,,,,,,,,,,,,,,,,,,,,,,,,,,,,,,,,,,,,,005,001,2024-05-30_13h59.48.753,ps,2023.2.3,30.054262971249283,2024-05-30 13h59.59.001058 -0400,
mini_blocks/3dp_wm_mini_block_2.xlsx,"*Break*
Entering the 3D WORKING MEMORY block
Rotation is Counter/Clockwise
Press <4> to continue",1,0,1,3D,p,120,True,True,28,sm4,60,180,output_pairs/3Dp_120_M_WM/3Dp_120_M_WM_28_1_sm_4_60deg.png,output_pairs/3Dp_120_M_WM/3Dp_120_M_WM_28_2_sm_4_180deg.png,653,period,0,3,3,3,,,,,0,14,14,14,,,,,,,,,783.0884638999996,,,,,,,,,,,,,,,,,,,,,,,,,,,,,,,,,,,,,783.0381469999993,783.0884638999996,784.033116300001,784.0999173000018,788.0328984000007,788.0662251000031,789.0708726000012,789.0376357999994,789.0376357999994,791.3716026999973,comma,0,2.312788199997158,None,791.3717878000025,791.4042747999993,791.4042747999993,793.4016759000006,2.0,['period'],[0.9943745999989915],[None],793.4018441000007,793.4328087000031,795.4044068000003,,,,,,,,,,,,,,,,,,,,,,,,,,,,,,,,,,,,,,,,,,,,,,,,,,,,,,,,,,,,,,,,,,,,,,,,,,,,,,,,,,005,001,2024-05-30_13h59.48.753,ps,2023.2.3,30.054262971249283,2024-05-30 13h59.59.001058 -0400,
mini_blocks/3dp_wm_mini_block_2.xlsx,"*Break*
Entering the 3D WORKING MEMORY block
Rotation is Counter/Clockwise
Press <4> to continue",1,0,1,3D,p,180,False,True,19,obj1,280,100,output_pairs/3Dp_180_WM/3Dp_60_WM_19_1_obj_12_280deg.png,output_pairs/3Dp_180_WM/3Dp_60_WM_19_2_obj_12_100deg.png,498,comma,0,3,3,3,,,,,0,15,15,15,,,,,,,,,795.4531816000017,,,,,,,,,,,,,,,,,,,,,,,,,,,,,,,,,,,,,795.4045910999994,795.4531816000017,796.3770291000037,796.4769223000039,800.3999358000001,800.3666012000031,801.3665957999983,801.3665957999983,801.3665957999983,803.0335698999988,comma,1,1.664066899997124,None,803.0337705999991,803.0662023000041,803.0662023000041,805.0367249999981,3.0,['slash'],[1.411119399999734],[None],805.0368696000005,805.066364899998,807.0438477999996,805.066364899998,805.066364899998,,,,,,,,,,,,,,,,,,,,,,,,,,,,,,,,,,,,,,,,,,,,,,,,,,,,,,,,,,,,,,,,,,,,,,,,,,,,,,,,005,001,2024-05-30_13h59.48.753,ps,2023.2.3,30.054262971249283,2024-05-30 13h59.59.001058 -0400,
mini_blocks/3dp_wm_mini_block_2.xlsx,"*Break*
Entering the 3D WORKING MEMORY block
Rotation is Counter/Clockwise
Press <4> to continue",1,0,1,,,,,,,,,,,,,,0,3,3,3,,,,,,,,,,,,,,,,,,,,,,,,,,,,,,,,,,,,,,,,,,,,,,,,,,,,,,,,,,,,,,,,,,,,,,,,,,,,,,,,,,807.0439095000038,807.0768997999985,807.0768997999985,815.0681726000039,3.0,"['period', 'slash']","[3.09770700000081, 4.744564399996307]","[None, None]",815.0683304999984,847.5004824999996,rshift,,,,,,,,,,,,,815.0994931000023,815.0994931000023,32.38622529999702,None,,,,,,,,,,,,,,,,,,,,,,,,,,,,,,,,,,,,,,,,,,,,,,,,,,,,005,001,2024-05-30_13h59.48.753,ps,2023.2.3,30.054262971249283,2024-05-30 13h59.59.001058 -0400,
mini_blocks/2d_single_mini_block_3.xlsx,"*Break*
Entering the 2D SIMULTANEOUS block
Rotation is Counter/Clockwise
Press <4> to continue",0,1,0,2D,None,120,False,False,None,obj1,140,260,output_pairs/2D_120/2D_120_obj_11_140_to_260deg.png,None,1115,comma,0,4,4,4,0,0,0,0,,,,,,,,,,,,,849.8920971000043,,,,,,,,,,,,,,,,,,,,,,,,,,,,,,847.5008750999987,847.5329091000021,847.5329091000021,849.8434701000006,rshift,2.289155300000857,None,,,,,,,,,,,,,,,854.3677590000007,854.3998666999978,854.3998666999978,856.3725610000038,2.0,['period'],[1.501483799998823],[None],856.3728061000002,856.4040378999998,858.4045244000008,,,,,,,,,,,,,,,849.8498242999995,849.8920971000043,850.866661,850.866661,850.9038198999988,854.3674517000036,period,0,3.4911981000041123,None,,,,,,,,,,,,,,,,,,,,,,,,,,,,,,,,,,,,,,,,,,,,,,,,,,,,,,,,,,005,001,2024-05-30_13h59.48.753,ps,2023.2.3,30.054262971249283,2024-05-30 13h59.59.001058 -0400,
mini_blocks/2d_single_mini_block_3.xlsx,"*Break*
Entering the 2D SIMULTANEOUS block
Rotation is Counter/Clockwise
Press <4> to continue",0,1,0,2D,None,0,False,False,None,obj7,220,None,output_pairs/2D_0/2D_0_obj_7_220deg.png,None,1998,comma,0,4,4,4,0,1,1,1,,,,,,,,,,,,,858.4411513000014,,,,,,,,,,,,,,,,,,,,,,,,,,,,,,,,,,,,,,,,,,,,,,,,,,,860.6007428000012,860.6332631999976,860.6332631999976,862.6060553999996,4.0,['rshift'],[0.9167489000028581],[None],862.6062678000017,862.6374094999992,864.6105919000038,,,,,,,,,,,,,,,858.404707499998,858.4411513000014,859.3666480000029,859.3666480000029,859.4705284000011,860.600531600001,comma,1,1.2316471000012825,None,,,,,,,,,,,,,,,,,,,,,,,,,,,,,,,,,,,,,,,,,,,,,,,,,,,,,,,,,,005,001,2024-05-30_13h59.48.753,ps,2023.2.3,30.054262971249283,2024-05-30 13h59.59.001058 -0400,
mini_blocks/2d_single_mini_block_3.xlsx,"*Break*
Entering the 2D SIMULTANEOUS block
Rotation is Counter/Clockwise
Press <4> to continue",0,1,0,2D,None,60,True,False,None,obj7,260,320,output_pairs/2D_60m/2D_60m_obj_7_260_to_320deg.png,None,571,period,0,4,4,4,0,2,2,2,,,,,,,,,,,,,864.6510959000007,,,,,,,,,,,,,,,,,,,,,,,,,,,,,,,,,,,,,,,,,,,,,,,,,,,868.7341623000029,868.7665667000038,868.7665667000038,870.7394082000028,None,None,,,870.7395021999982,870.7707051000034,872.7439577999976,,,,,,,,,,,,,,,864.6107736999984,864.6510959000007,865.6002547000026,865.6002547000026,865.6666009000037,868.7339585000009,period,1,3.1105375999977696,None,,,,,,,,,,,,,,,,,,,,,,,,,,,,,,,,,,,,,,,,,,,,,,,,,,,,,,,,,,005,001,2024-05-30_13h59.48.753,ps,2023.2.3,30.054262971249283,2024-05-30 13h59.59.001058 -0400,
mini_blocks/2d_single_mini_block_3.xlsx,"*Break*
Entering the 2D SIMULTANEOUS block
Rotation is Counter/Clockwise
Press <4> to continue",0,1,0,2D,None,0,False,False,None,sm3,140,None,output_pairs/2D_0/2D_0_SM3_140deg.png,None,2009,comma,0,4,4,4,0,3,3,3,,,,,,,,,,,,,872.793155600004,,,,,,,,,,,,,,,,,,,,,,,,,,,,,,,,,,,,,,,,,,,,,,,,,,,875.305231899998,875.3335967000021,875.3335967000021,877.3038073999996,4.0,['rshift'],[0.6401830000031623],[None],877.3041147999975,877.3332386999973,879.3005761000022,877.3332386999973,877.3332386999973,879.3456154000014,,,,,,,,,,,,872.7441526999974,872.793155600004,873.7334349000012,873.7334349000012,873.8002590000033,875.305025200003,comma,1,1.544356099999277,None,,,,,,,,,,,,,,,,,,,,,,,,,,,,,,,,,,,,,,,,,,,,,,,,,,,,,,,,,,005,001,2024-05-30_13h59.48.753,ps,2023.2.3,30.054262971249283,2024-05-30 13h59.59.001058 -0400,
mini_blocks/2d_single_mini_block_3.xlsx,"*Break*
Entering the 2D SIMULTANEOUS block
Rotation is Counter/Clockwise
Press <4> to continue",0,1,0,2D,None,120,False,False,None,obj2,240,0,output_pairs/2D_120/2D_120_obj_2_240_to_0deg.png,None,1093,comma,0,4,4,4,0,4,4,4,,,,,,,,,,,,,879.3456154000014,,,,,,,,,,,,,,,,,,,,,,,,,,,,,,,,,,,,,,,,,,,,,,,,,,,882.0009176000021,882.0330858000016,882.0330858000016,884.0036001000044,4.0,['rshift'],[0.9656847000005655],[None],884.0037482000043,884.0332125999994,886.0107081000024,884.0332125999994,884.0332125999994,,,,,,,,,,,,,879.3007530000032,879.3456154000014,880.3379720000012,880.3379720000012,880.3711154999983,882.0007172000041,comma,1,1.629308099996706,None,,,,,,,,,,,,,,,,,,,,,,,,,,,,,,,,,,,,,,,,,,,,,,,,,,,,,,,,,,005,001,2024-05-30_13h59.48.753,ps,2023.2.3,30.054262971249283,2024-05-30 13h59.59.001058 -0400,
mini_blocks/2d_single_mini_block_3.xlsx,"*Break*
Entering the 2D SIMULTANEOUS block
Rotation is Counter/Clockwise
Press <4> to continue",0,1,0,2D,None,0,True,False,None,obj1,60,None,output_pairs/2D_0m/2D_0m_obj_15_60deg.png,None,1120,period,0,4,4,4,0,5,5,5,,,,,,,,,,,,,886.054355100001,,,,,,,,,,,,,,,,,,,,,,,,,,,,,,,,,,,,,,,,,,,,,,,,,,,889.3343882000045,889.3666673000043,889.3666673000043,891.3397177000006,4.0,['rshift'],[0.7508547999968869],[None],891.3398672999974,891.3712214000043,893.343915999998,,,,,,,,,,,,,,,886.0108863999994,886.054355100001,887.0003063999975,887.0003063999975,887.0668720000031,889.3341785000011,period,1,2.317618000000948,None,,,,,,,,,,,,,,,,,,,,,,,,,,,,,,,,,,,,,,,,,,,,,,,,,,,,,,,,,,005,001,2024-05-30_13h59.48.753,ps,2023.2.3,30.054262971249283,2024-05-30 13h59.59.001058 -0400,
mini_blocks/2d_single_mini_block_3.xlsx,"*Break*
Entering the 2D SIMULTANEOUS block
Rotation is Counter/Clockwise
Press <4> to continue",0,1,0,2D,None,60,True,False,None,obj8,160,220,output_pairs/2D_60m/2D_60m_obj_8_160_to_220deg.png,None,575,period,0,4,4,4,0,6,6,6,,,,,,,,,,,,,893.3906377000021,,,,,,,,,,,,,,,,,,,,,,,,,,,,,,,,,,,,,,,,,,,,,,,,,,,898.5386570999981,898.5710636000003,898.5710636000003,900.5419159000012,4.0,['rshift'],[1.73102949999884],[None],900.5423912000042,900.5712677999982,902.5382929999978,900.5712677999982,900.5712677999982,902.5814094000016,,,,,,,,,,,,893.344105199998,893.3906377000021,894.3378730999975,894.3378730999975,894.4002689999979,898.5384498999993,period,1,4.180016699996486,None,,,,,,,,,,,,,,,,,,,,,,,,,,,,,,,,,,,,,,,,,,,,,,,,,,,,,,,,,,005,001,2024-05-30_13h59.48.753,ps,2023.2.3,30.054262971249283,2024-05-30 13h59.59.001058 -0400,
mini_blocks/2d_single_mini_block_3.xlsx,"*Break*
Entering the 2D SIMULTANEOUS block
Rotation is Counter/Clockwise
Press <4> to continue",0,1,0,2D,None,60,False,False,None,obj3,260,320,output_pairs/2D_60/2D_60_obj_3_260_to_320deg.png,None,952,comma,0,4,4,4,0,7,7,7,,,,,,,,,,,,,902.5814094000016,,,,,,,,,,,,,,,,,,,,,,,,,,,,,,,,,,,,,,,,,,,,,,,,,,,905.434362699998,905.4667212999993,905.4667212999993,907.437382199998,4.0,['rshift'],[0.7081499999985681],[None],907.437592000002,907.4671772000002,909.4380265,907.4671772000002,907.4671772000002,,,,,,,,,,,,,902.5384644000005,902.5814094000016,903.5712452000007,903.5712452000007,903.6003041000004,905.4341026000038,comma,1,1.8512887000033516,None,,,,,,,,,,,,,,,,,,,,,,,,,,,,,,,,,,,,,,,,,,,,,,,,,,,,,,,,,,005,001,2024-05-30_13h59.48.753,ps,2023.2.3,30.054262971249283,2024-05-30 13h59.59.001058 -0400,
mini_blocks/2d_single_mini_block_3.xlsx,"*Break*
Entering the 2D SIMULTANEOUS block
Rotation is Counter/Clockwise
Press <4> to continue",0,1,0,2D,None,180,False,False,None,sm5,320,140,output_pairs/2D_180/2D_180_SM5_320_to_140deg.png,None,1059,comma,0,4,4,4,0,8,8,8,,,,,,,,,,,,,909.4765744000033,,,,,,,,,,,,,,,,,,,,,,,,,,,,,,,,,,,,,,,,,,,,,,,,,,,916.3012030000027,916.3334112000011,916.3334112000011,918.3063572000028,2.0,['period'],[1.5999071999976877],[None],918.306516800003,918.3336861999996,920.3108285999988,,,,,,,,,,,,,,,909.438218299998,909.4765744000033,910.4443266000017,910.4443266000017,910.477621500002,916.3009889000023,comma,1,5.8249861000003875,None,,,,,,,,,,,,,,,,,,,,,,,,,,,,,,,,,,,,,,,,,,,,,,,,,,,,,,,,,,005,001,2024-05-30_13h59.48.753,ps,2023.2.3,30.054262971249283,2024-05-30 13h59.59.001058 -0400,
mini_blocks/2d_single_mini_block_3.xlsx,"*Break*
Entering the 2D SIMULTANEOUS block
Rotation is Counter/Clockwise
Press <4> to continue",0,1,0,2D,None,120,True,False,None,sm5,320,80,output_pairs/2D_120m/2D_120m_SM5_320_to_80deg.png,None,1398,period,0,4,4,4,0,9,9,9,,,,,,,,,,,,,920.3540869999997,,,,,,,,,,,,,,,,,,,,,,,,,,,,,,,,,,,,,,,,,,,,,,,,,,,926.6683760000014,926.7004540999988,926.7004540999988,928.6731646999979,3.0,['slash'],[1.0422403999982635],[None],928.6733452000044,928.7107135999977,930.7061775999973,,,,,,,,,,,,,,,920.3110116000025,920.3540869999997,921.3047299000027,921.3047299000027,921.3670152999985,926.6681561000005,period,1,5.350602500002424,None,,,,,,,,,,,,,,,,,,,,,,,,,,,,,,,,,,,,,,,,,,,,,,,,,,,,,,,,,,005,001,2024-05-30_13h59.48.753,ps,2023.2.3,30.054262971249283,2024-05-30 13h59.59.001058 -0400,
mini_blocks/2d_single_mini_block_3.xlsx,"*Break*
Entering the 2D SIMULTANEOUS block
Rotation is Counter/Clockwise
Press <4> to continue",0,1,0,2D,None,180,False,False,None,obj1,160,340,output_pairs/2D_180/2D_180_obj_1_160_to_340deg.png,None,1064,comma,0,4,4,4,0,10,10,10,,,,,,,,,,,,,930.7449247999975,,,,,,,,,,,,,,,,,,,,,,,,,,,,,,,,,,,,,,,,,,,,,,,,,,,937.6723131000035,937.7047581000006,937.7047581000006,939.7020607000013,3.0,['slash'],[0.853368899995985],[None],939.7022177000035,939.7333995000008,941.7004257000008,,,,,,,,,,,,,,,930.7063679999992,930.7449247999975,931.7005167000025,931.7005167000025,931.7673082000038,937.672086999999,comma,1,5.969474300000002,None,,,,,,,,,,,,,,,,,,,,,,,,,,,,,,,,,,,,,,,,,,,,,,,,,,,,,,,,,,005,001,2024-05-30_13h59.48.753,ps,2023.2.3,30.054262971249283,2024-05-30 13h59.59.001058 -0400,
mini_blocks/2d_single_mini_block_3.xlsx,"*Break*
Entering the 2D SIMULTANEOUS block
Rotation is Counter/Clockwise
Press <4> to continue",0,1,0,2D,None,120,True,False,None,sm3,340,100,output_pairs/2D_120m/2D_120m_SM3_340_to_100deg.png,None,1387,period,0,4,4,4,0,11,11,11,,,,,,,,,,,,,941.7369478000037,,,,,,,,,,,,,,,,,,,,,,,,,,,,,,,,,,,,,,,,,,,,,,,,,,,948.934665300003,948.9667592000042,948.9667592000042,950.9377596999984,4.0,['rshift'],[1.847929200004728],[None],950.9379198000024,950.9670031999995,952.9441721000039,950.9670031999995,950.9670031999995,,,,,,,,,,,,,941.7007372000007,941.7369478000037,942.6775826000012,942.6775826000012,942.7446024000019,948.9344372999985,period,1,6.2416769999981625,None,,,,,,,,,,,,,,,,,,,,,,,,,,,,,,,,,,,,,,,,,,,,,,,,,,,,,,,,,,005,001,2024-05-30_13h59.48.753,ps,2023.2.3,30.054262971249283,2024-05-30 13h59.59.001058 -0400,
mini_blocks/2d_single_mini_block_3.xlsx,"*Break*
Entering the 2D SIMULTANEOUS block
Rotation is Counter/Clockwise
Press <4> to continue",0,1,0,2D,None,0,True,False,None,sm3,120,None,output_pairs/2D_0m/2D_0m_SM3_120deg.png,None,1135,period,0,4,4,4,0,12,12,12,,,,,,,,,,,,,952.9843853999992,,,,,,,,,,,,,,,,,,,,,,,,,,,,,,,,,,,,,,,,,,,,,,,,,,,956.7677675000014,956.8002629999974,956.8002629999974,958.7705166000014,4.0,['rshift'],[0.6621914999996079],[None],958.7708159000031,958.8003880000033,960.7717754999976,958.8003880000033,958.8003880000033,,,,,,,,,,,,,952.9443505000017,952.9843853999992,953.933889400003,953.933889400003,954.0045632000038,956.7675600000002,period,1,2.824381500002346,None,,,,,,,,,,,,,,,,,,,,,,,,,,,,,,,,,,,,,,,,,,,,,,,,,,,,,,,,,,005,001,2024-05-30_13h59.48.753,ps,2023.2.3,30.054262971249283,2024-05-30 13h59.59.001058 -0400,
mini_blocks/2d_single_mini_block_3.xlsx,"*Break*
Entering the 2D SIMULTANEOUS block
Rotation is Counter/Clockwise
Press <4> to continue",0,1,0,2D,None,60,False,False,None,obj1,240,300,output_pairs/2D_60/2D_60_obj_1_240_to_300deg.png,None,947,comma,0,4,4,4,0,13,13,13,,,,,,,,,,,,,960.8085280000014,,,,,,,,,,,,,,,,,,,,,,,,,,,,,,,,,,,,,,,,,,,,,,,,,,,963.1681363000025,963.2001574000024,963.2001574000024,965.1732493000018,None,None,,,965.173337500004,965.2048821999997,967.2049150000021,,,,,,,,,,,,,,,960.7719662000018,960.8085280000014,961.7776245999994,961.7776245999994,961.8107602000018,963.1679322999989,period,0,1.381119799996668,None,,,,,,,,,,,,,,,,,,,,,,,,,,,,,,,,,,,,,,,,,,,,,,,,,,,,,,,,,,005,001,2024-05-30_13h59.48.753,ps,2023.2.3,30.054262971249283,2024-05-30 13h59.59.001058 -0400,
mini_blocks/2d_single_mini_block_3.xlsx,"*Break*
Entering the 2D SIMULTANEOUS block
Rotation is Counter/Clockwise
Press <4> to continue",0,1,0,2D,None,180,True,False,None,sm3,300,120,output_pairs/2D_180m/2D_180m_SM3_300_to_120deg.png,None,1373,period,0,4,4,4,0,14,14,14,,,,,,,,,,,,,967.2417619999978,,,,,,,,,,,,,,,,,,,,,,,,,,,,,,,,,,,,,,,,,,,,,,,,,,,971.0721610000037,971.1046017999979,971.1046017999979,973.1066546000002,None,None,,,973.1067428000024,973.1382355000023,975.1007618000003,,,,,,,,,,,,,,,967.2050935000007,967.2417619999978,968.1714868999989,968.1714868999989,968.271190600004,971.071955600004,comma,0,2.8746208000011393,None,,,,,,,,,,,,,,,,,,,,,,,,,,,,,,,,,,,,,,,,,,,,,,,,,,,,,,,,,,005,001,2024-05-30_13h59.48.753,ps,2023.2.3,30.054262971249283,2024-05-30 13h59.59.001058 -0400,
mini_blocks/2d_single_mini_block_3.xlsx,"*Break*
Entering the 2D SIMULTANEOUS block
Rotation is Counter/Clockwise
Press <4> to continue",0,1,0,2D,None,180,True,False,None,obj7,140,320,output_pairs/2D_180m/2D_180m_obj_7_140_to_320deg.png,None,1351,period,0,4,4,4,0,15,15,15,,,,,,,,,,,,,975.1451174000031,,,,,,,,,,,,,,,,,,,,,,,,,,,,,,,,,,,,,,,,,,,,,,,,,,,979.1389005000019,979.1713858000003,979.1713858000003,981.1419258000024,None,None,,,981.1420072000037,981.1716333000004,983.1386324999985,981.1716333000004,981.1716333000004,983.1715777999998,,,,,,,,,,,,975.1010781000004,975.1451174000031,976.0777208,976.0777208,976.144529600002,979.1386599000034,period,1,3.0572171000021626,None,,,,,,,,,,,,,,,,,,,,,,,,,,,,,,,,,,,,,,,,,,,,,,,,,,,,,,,,,,005,001,2024-05-30_13h59.48.753,ps,2023.2.3,30.054262971249283,2024-05-30 13h59.59.001058 -0400,
mini_blocks/2d_single_mini_block_3.xlsx,"*Break*
Entering the 2D SIMULTANEOUS block
Rotation is Counter/Clockwise
Press <4> to continue",0,1,0,,,,,,,,,,,,,,0,4,4,4,,,,,,,,,,,,,,,,,,,,,,,,,,,,,,,,,,,,,,,,,,,,,,,,,,,,,,,,,,,,,,,,,,,,,,,,,,,,,,,,,,983.1446463000029,983.1715777999998,983.1715777999998,991.1689239000043,4.0,"['slash', 'rshift']","[2.138881000006222, 3.522348000005877]","[None, None]",991.1690791000001,991.1691050000009,None,,,,,,,,,,,,,,,,,,,,,,,,,,,,,,,,,,,,,,,,,,,,,,,,,,,,,,,,,,,,,,,,,,,,005,001,2024-05-30_13h59.48.753,ps,2023.2.3,30.054262971249283,2024-05-30 13h59.59.001058 -0400,
mini_blocks/3dp_single_mini_block_1.xlsx,"*Break*
Entering the 3D SIMULTANEOUS block
Rotation is Counter/Clockwise
Press <4> to continue",0,1,0,3D,p,120,False,False,None,obj7,160,280,output_pairs/3Dp_120/3Dp_120_obj_7_160_to_280deg.png,None,708,comma,0,5,5,5,0,0,0,0,,,,,,,,,,,,,998.5597991000031,,,,,,,,,,,,,,,,,,,,,,,,,,,,,,991.1692261999997,991.200387900004,991.200387900004,998.5055129000029,rshift,7.27742560000479,None,,,,,,,,,,,,,,,1006.0780362000005,1006.1103164000015,1006.1103164000015,1008.102163399999,2.0,['period'],[1.7514445999986492],[None],1008.1024120000002,1008.1339363000006,1010.105303700002,,,,,,,,,,,,,,,998.5156166000015,998.5597991000031,999.5007189000025,999.5007189000025,999.5712591999982,1006.0777266000005,comma,1,6.569080599998415,None,,,,,,,,,,,,,,,,,,,,,,,,,,,,,,,,,,,,,,,,,,,,,,,,,,,,,,,,,,005,001,2024-05-30_13h59.48.753,ps,2023.2.3,30.054262971249283,2024-05-30 13h59.59.001058 -0400,
mini_blocks/3dp_single_mini_block_1.xlsx,"*Break*
Entering the 3D SIMULTANEOUS block
Rotation is Counter/Clockwise
Press <4> to continue",0,1,0,3D,p,60,False,False,None,obj4,280,340,output_pairs/3Dp_60/3Dp_60_obj_4_280_to_340deg.png,None,1619,comma,0,5,5,5,0,1,1,1,,,,,,,,,,,,,1010.1580420000028,,,,,,,,,,,,,,,,,,,,,,,,,,,,,,,,,,,,,,,,,,,,,,,,,,,1014.5683190999989,1014.6004358999999,1014.6004358999999,1016.5719212999975,3.0,['slash'],[1.3667163999998593],[None],1016.5720779999974,1016.6050968999989,1018.6008051000026,1016.6050968999989,1016.6050968999989,,,,,,,,,,,,,1010.1054801999999,1010.1580420000028,1011.1049450999999,1011.1049450999999,1011.1675076000029,1014.5681072000007,comma,1,3.436958999998751,None,,,,,,,,,,,,,,,,,,,,,,,,,,,,,,,,,,,,,,,,,,,,,,,,,,,,,,,,,,005,001,2024-05-30_13h59.48.753,ps,2023.2.3,30.054262971249283,2024-05-30 13h59.59.001058 -0400,
mini_blocks/3dp_single_mini_block_1.xlsx,"*Break*
Entering the 3D SIMULTANEOUS block
Rotation is Counter/Clockwise
Press <4> to continue",0,1,0,3D,p,180,False,False,None,obj8,40,220,output_pairs/3Dp_180/3Dp_180_obj_8_40_to_220deg.png,None,767,comma,0,5,5,5,0,2,2,2,,,,,,,,,,,,,1018.640398100004,,,,,,,,,,,,,,,,,,,,,,,,,,,,,,,,,,,,,,,,,,,,,,,,,,,1023.3357666000011,1023.3678565000009,1023.3678565000009,1025.3375584000023,2.0,['period'],[0.8947865999944042],[None],1025.3377093000017,1025.3672215000042,1027.3386328999986,1025.3672215000042,1025.3672215000042,,,,,,,,,,,,,1018.6010475000003,1018.640398100004,1019.5674995000008,1019.5674995000008,1019.6674887000045,1023.3355526000014,period,0,3.7668540999948164,None,,,,,,,,,,,,,,,,,,,,,,,,,,,,,,,,,,,,,,,,,,,,,,,,,,,,,,,,,,005,001,2024-05-30_13h59.48.753,ps,2023.2.3,30.054262971249283,2024-05-30 13h59.59.001058 -0400,
mini_blocks/3dp_single_mini_block_1.xlsx,"*Break*
Entering the 3D SIMULTANEOUS block
Rotation is Counter/Clockwise
Press <4> to continue",0,1,0,3D,p,120,True,False,None,obj1,200,320,output_pairs/3Dp_120m/3Dp_120m_obj_10_200_to_320deg.png,None,2138,period,0,5,5,5,0,3,3,3,,,,,,,,,,,,,1027.3804691999976,,,,,,,,,,,,,,,,,,,,,,,,,,,,,,,,,,,,,,,,,,,,,,,,,,,1033.8390164000011,1033.871454,1033.871454,1035.8692129999981,None,None,,,1035.8693072000024,1035.9005619000018,1037.8720315000028,,,,,,,,,,,,,,,1027.3388126999998,1027.3804691999976,1028.3445549000025,1028.3445549000025,1028.4106575999976,1033.838808200002,period,1,5.4863359999944805,None,,,,,,,,,,,,,,,,,,,,,,,,,,,,,,,,,,,,,,,,,,,,,,,,,,,,,,,,,,005,001,2024-05-30_13h59.48.753,ps,2023.2.3,30.054262971249283,2024-05-30 13h59.59.001058 -0400,
mini_blocks/3dp_single_mini_block_1.xlsx,"*Break*
Entering the 3D SIMULTANEOUS block
Rotation is Counter/Clockwise
Press <4> to continue",0,1,0,3D,p,0,True,False,None,obj5,180,None,output_pairs/3Dp_0m/3Dp_0m_obj_5_180deg.png,None,1710,period,0,5,5,5,0,4,4,4,,,,,,,,,,,,,1037.9214415000024,,,,,,,,,,,,,,,,,,,,,,,,,,,,,,,,,,,,,,,,,,,,,,,,,,,1041.6353711999982,1041.6673876999994,1041.6673876999994,1043.6403580000042,3.0,['slash'],[1.5947691999972449],[None],1043.6405234999984,1043.6718404999992,1045.6676118000032,,,,,,,,,,,,,,,1037.8723157999993,1037.9214415000024,1038.838691099998,1038.838691099998,1038.938290500002,1041.6349973000033,period,1,2.767339099998935,None,,,,,,,,,,,,,,,,,,,,,,,,,,,,,,,,,,,,,,,,,,,,,,,,,,,,,,,,,,005,001,2024-05-30_13h59.48.753,ps,2023.2.3,30.054262971249283,2024-05-30 13h59.59.001058 -0400,
mini_blocks/3dp_single_mini_block_1.xlsx,"*Break*
Entering the 3D SIMULTANEOUS block
Rotation is Counter/Clockwise
Press <4> to continue",0,1,0,3D,p,0,True,False,None,sm1,300,None,output_pairs/3Dp_0m/3Dp_0m_sm_1_300deg.png,None,1702,period,0,5,5,5,0,5,5,5,,,,,,,,,,,,,1045.7053134000016,,,,,,,,,,,,,,,,,,,,,,,,,,,,,,,,,,,,,,,,,,,,,,,,,,,1051.2057325999995,1051.2381516000023,1051.2381516000023,1053.2358764000019,3.0,['slash'],[1.0473165000003064],[None],1053.2360423999999,1053.267340899998,1055.2387486000007,,,,,,,,,,,,,,,1045.6678380000012,1045.7053134000016,1046.644482900003,1046.644482900003,1046.711000700001,1051.205525199999,comma,0,4.5387673000004725,None,,,,,,,,,,,,,,,,,,,,,,,,,,,,,,,,,,,,,,,,,,,,,,,,,,,,,,,,,,005,001,2024-05-30_13h59.48.753,ps,2023.2.3,30.054262971249283,2024-05-30 13h59.59.001058 -0400,
mini_blocks/3dp_single_mini_block_1.xlsx,"*Break*
Entering the 3D SIMULTANEOUS block
Rotation is Counter/Clockwise
Press <4> to continue",0,1,0,3D,p,180,False,False,None,sm5,240,60,output_pairs/3Dp_180/3Dp_180_sm_5_240_to_60deg.png,None,766,comma,0,5,5,5,0,6,6,6,,,,,,,,,,,,,1055.2766102000023,,,,,,,,,,,,,,,,,,,,,,,,,,,,,,,,,,,,,,,,,,,,,,,,,,,1062.8684861000002,1062.9006532999992,1062.9006532999992,1064.8737236000015,2.0,['period'],[1.665212400002929],[None],1064.8738710000034,1064.9053864000016,1066.8781787000044,,,,,,,,,,,,,,,1055.238940000003,1055.2766102000023,1056.2115701000002,1056.2115701000002,1056.2676788000026,1062.8682741000011,comma,1,6.6349399000027915,None,,,,,,,,,,,,,,,,,,,,,,,,,,,,,,,,,,,,,,,,,,,,,,,,,,,,,,,,,,005,001,2024-05-30_13h59.48.753,ps,2023.2.3,30.054262971249283,2024-05-30 13h59.59.001058 -0400,
mini_blocks/3dp_single_mini_block_1.xlsx,"*Break*
Entering the 3D SIMULTANEOUS block
Rotation is Counter/Clockwise
Press <4> to continue",0,1,0,3D,p,0,True,False,None,obj1,280,None,output_pairs/3Dp_0m/3Dp_0m_obj_12_280deg.png,None,1716,period,0,5,5,5,0,7,7,7,,,,,,,,,,,,,1066.9221644999998,,,,,,,,,,,,,,,,,,,,,,,,,,,,,,,,,,,,,,,,,,,,,,,,,,,1070.3349118999977,1070.3673933000027,1070.3673933000027,1072.3404528000028,4.0,['rshift'],[0.8708792000034009],[None],1072.3406668000025,1072.3719482000015,1074.3679613999993,,,,,,,,,,,,,,,1066.8783756999983,1066.9221644999998,1067.871922899998,1067.871922899998,1067.9382182000045,1070.3347024000032,period,1,2.438920500004315,None,,,,,,,,,,,,,,,,,,,,,,,,,,,,,,,,,,,,,,,,,,,,,,,,,,,,,,,,,,005,001,2024-05-30_13h59.48.753,ps,2023.2.3,30.054262971249283,2024-05-30 13h59.59.001058 -0400,
mini_blocks/3dp_single_mini_block_1.xlsx,"*Break*
Entering the 3D SIMULTANEOUS block
Rotation is Counter/Clockwise
Press <4> to continue",0,1,0,3D,p,120,True,False,None,obj2,80,200,output_pairs/3Dp_120m/3Dp_120m_obj_2_80_to_200deg.png,None,2123,period,0,5,5,5,0,8,8,8,,,,,,,,,,,,,1074.4055244999981,,,,,,,,,,,,,,,,,,,,,,,,,,,,,,,,,,,,,,,,,,,,,,,,,,,1081.305868000003,1081.338273100002,1081.338273100002,1083.3360089999987,3.0,['slash'],[0.8522402000016882],[None],1083.3361664999975,1083.3674630000023,1085.3389184999978,,,,,,,,,,,,,,,1074.3682262000002,1074.4055244999981,1075.3386236000006,1075.3386236000006,1075.4381977000012,1081.305622699998,comma,0,5.9631406999978935,None,,,,,,,,,,,,,,,,,,,,,,,,,,,,,,,,,,,,,,,,,,,,,,,,,,,,,,,,,,005,001,2024-05-30_13h59.48.753,ps,2023.2.3,30.054262971249283,2024-05-30 13h59.59.001058 -0400,
mini_blocks/3dp_single_mini_block_1.xlsx,"*Break*
Entering the 3D SIMULTANEOUS block
Rotation is Counter/Clockwise
Press <4> to continue",0,1,0,3D,p,180,False,False,None,obj1,40,220,output_pairs/3Dp_180/3Dp_180_obj_1_40_to_220deg.png,None,748,comma,0,5,5,5,0,9,9,9,,,,,,,,,,,,,1085.3846325999984,,,,,,,,,,,,,,,,,,,,,,,,,,,,,,,,,,,,,,,,,,,,,,,,,,,1095.2392784999975,1095.271622100001,1095.271622100001,1097.2432047999973,2.0,['period'],[1.062329000000318],[None],1097.243359699998,1097.2721611000015,1099.2391461000007,1097.2721611000015,1097.2721611000015,1099.2759492999976,,,,,,,,,,,,1085.339197100002,1085.3846325999984,1086.3114713000032,1086.3114713000032,1086.4108159000025,1095.2390662000034,comma,1,8.918154200000572,None,,,,,,,,,,,,,,,,,,,,,,,,,,,,,,,,,,,,,,,,,,,,,,,,,,,,,,,,,,005,001,2024-05-30_13h59.48.753,ps,2023.2.3,30.054262971249283,2024-05-30 13h59.59.001058 -0400,
mini_blocks/3dp_single_mini_block_1.xlsx,"*Break*
Entering the 3D SIMULTANEOUS block
Rotation is Counter/Clockwise
Press <4> to continue",0,1,0,3D,p,60,True,False,None,obj1,140,200,output_pairs/3Dp_60m/3Dp_60m_obj_10_140_to_200deg.png,None,859,period,0,5,5,5,0,10,10,10,,,,,,,,,,,,,1099.2759492999976,,,,,,,,,,,,,,,,,,,,,,,,,,,,,,,,,,,,,,,,,,,,,,,,,,,1105.6018777999998,1105.6342114,1105.6342114,1107.6073185999994,3.0,['slash'],[1.5883313000013004],[None],1107.6074769000043,1107.6346340000018,1109.601631999998,,,1109.6423142999993,,,,,,,,,,,,1099.2393194000033,1099.2759492999976,1100.2445909000016,1100.2445909000016,1100.2775698999976,1105.6016670000026,period,1,5.345690999994986,None,,,,,,,,,,,,,,,,,,,,,,,,,,,,,,,,,,,,,,,,,,,,,,,,,,,,,,,,,,005,001,2024-05-30_13h59.48.753,ps,2023.2.3,30.054262971249283,2024-05-30 13h59.59.001058 -0400,
mini_blocks/3dp_single_mini_block_1.xlsx,"*Break*
Entering the 3D SIMULTANEOUS block
Rotation is Counter/Clockwise
Press <4> to continue",0,1,0,3D,p,0,False,False,None,obj4,80,None,output_pairs/3Dp_0/3Dp_0_obj_4_80deg.png,None,2168,comma,0,5,5,5,0,11,11,11,,,,,,,,,,,,,1109.6423142999993,,,,,,,,,,,,,,,,,,,,,,,,,,,,,,,,,,,,,,,,,,,,,,,,,,,1112.6687777999978,1112.7009163999974,1112.7009163999974,1114.6740236000041,4.0,['rshift'],[0.7222489999985555],[None],1114.674172799998,1114.7055365999986,1116.7013615000033,,,,,,,,,,,,,,,1109.6018081000002,1109.6423142999993,1110.6012167000008,1110.6012167000008,1110.667902400004,1112.6684927000024,comma,1,2.052438799997617,None,,,,,,,,,,,,,,,,,,,,,,,,,,,,,,,,,,,,,,,,,,,,,,,,,,,,,,,,,,005,001,2024-05-30_13h59.48.753,ps,2023.2.3,30.054262971249283,2024-05-30 13h59.59.001058 -0400,
mini_blocks/3dp_single_mini_block_1.xlsx,"*Break*
Entering the 3D SIMULTANEOUS block
Rotation is Counter/Clockwise
Press <4> to continue",0,1,0,3D,p,60,True,False,None,obj1,140,200,output_pairs/3Dp_60m/3Dp_60m_obj_10_140_to_200deg.png,None,859,period,0,5,5,5,0,12,12,12,,,,,,,,,,,,,1116.738463499998,,,,,,,,,,,,,,,,,,,,,,,,,,,,,,,,,,,,,,,,,,,,,,,,,,,1121.0394210000013,1121.0717512999981,1121.0717512999981,1123.042513100001,None,None,,,1123.0426099000033,1123.0677639999994,1125.0392425000027,1123.0677639999994,1123.0677639999994,1125.0751337000038,,,,,,,,,,,,1116.7016321999981,1116.738463499998,1117.6678919999977,1117.6678919999977,1117.771716000003,1121.0392064999978,period,1,3.3698585000020103,None,,,,,,,,,,,,,,,,,,,,,,,,,,,,,,,,,,,,,,,,,,,,,,,,,,,,,,,,,,005,001,2024-05-30_13h59.48.753,ps,2023.2.3,30.054262971249283,2024-05-30 13h59.59.001058 -0400,
mini_blocks/3dp_single_mini_block_1.xlsx,"*Break*
Entering the 3D SIMULTANEOUS block
Rotation is Counter/Clockwise
Press <4> to continue",0,1,0,3D,p,0,False,False,None,obj1,280,None,output_pairs/3Dp_0/3Dp_0_obj_14_280deg.png,None,2145,comma,0,5,5,5,0,13,13,13,,,,,,,,,,,,,1125.0751337000038,,,,,,,,,,,,,,,,,,,,,,,,,,,,,,,,,,,,,,,,,,,,,,,,,,,1127.3689766000025,1127.4011906000014,1127.4011906000014,1129.3719990000027,4.0,['rshift'],[0.4611979000037536],[None],1129.3721626000042,1129.4009559999977,1131.3725005000015,1129.4009559999977,1129.4009559999977,,,,,,,,,,,,,1125.0394014999983,1125.0751337000038,1126.0677877999988,1126.0677877999988,1126.1012871999992,1127.3687646000035,comma,1,1.2835020999991684,None,,,,,,,,,,,,,,,,,,,,,,,,,,,,,,,,,,,,,,,,,,,,,,,,,,,,,,,,,,005,001,2024-05-30_13h59.48.753,ps,2023.2.3,30.054262971249283,2024-05-30 13h59.59.001058 -0400,
mini_blocks/3dp_single_mini_block_1.xlsx,"*Break*
Entering the 3D SIMULTANEOUS block
Rotation is Counter/Clockwise
Press <4> to continue",0,1,0,3D,p,60,True,False,None,obj1,200,260,output_pairs/3Dp_60m/3Dp_60m_obj_15_200_to_260deg.png,None,846,period,0,5,5,5,0,14,14,14,,,,,,,,,,,,,1131.410723699999,,,,,,,,,,,,,,,,,,,,,,,,,,,,,,,,,,,,,,,,,,,,,,,,,,,1135.4019910999996,1135.4341115999996,1135.4341115999996,1137.4072979999983,3.0,['slash'],[0.9403670999963651],[None],1137.407479100002,1137.4388818000007,1139.434830099999,,,,,,,,,,,,,,,1131.3726865999997,1131.410723699999,1132.3679862999998,1132.3679862999998,1132.4345979999998,1135.4017791000006,period,1,3.006121999998868,None,,,,,,,,,,,,,,,,,,,,,,,,,,,,,,,,,,,,,,,,,,,,,,,,,,,,,,,,,,005,001,2024-05-30_13h59.48.753,ps,2023.2.3,30.054262971249283,2024-05-30 13h59.59.001058 -0400,
mini_blocks/3dp_single_mini_block_1.xlsx,"*Break*
Entering the 3D SIMULTANEOUS block
Rotation is Counter/Clockwise
Press <4> to continue",0,1,0,3D,p,0,True,False,None,obj4,80,None,output_pairs/3Dp_0m/3Dp_0m_obj_4_80deg.png,None,1727,period,0,5,5,5,0,15,15,15,,,,,,,,,,,,,1139.4724964999987,,,,,,,,,,,,,,,,,,,,,,,,,,,,,,,,,,,,,,,,,,,,,,,,,,,1149.3683223000044,1149.4010000999988,1149.4010000999988,1151.3758594000028,3.0,"['comma', 'slash']","[0.28597650000301655, 1.1576251000005868]","[None, None]",1151.3760207000014,1151.401393799999,1153.3686288000026,1151.401393799999,1151.401393799999,1153.405612100003,,,,,,,,,,,,1139.4351419000013,1139.4724964999987,1140.401372799999,1140.401372799999,1140.501330500003,1149.3681610999993,None,0,,,1149.4010000999988,1149.4010000999988,,,,,,,,,,,,,,,,,,,,,,,,,,,,,,,,,,,,,,,,,,,,,,,,,,,,,,,,005,001,2024-05-30_13h59.48.753,ps,2023.2.3,30.054262971249283,2024-05-30 13h59.59.001058 -0400,
mini_blocks/3dp_single_mini_block_1.xlsx,"*Break*
Entering the 3D SIMULTANEOUS block
Rotation is Counter/Clockwise
Press <4> to continue",0,1,0,,,,,,,,,,,,,,0,5,5,5,,,,,,,,,,,,,,,,,,,,,,,,,,,,,,,,,,,,,,,,,,,,,,,,,,,,,,,,,,,,,,,,,,,,,,,,,,,,,,,,,,1153.3780832999983,1153.405612100003,1153.405612100003,1161.4052803000013,3.0,['slash'],[4.953430199995637],[None],1161.4054211999974,1161.405442299998,None,,,,,,,,,,,,,,,,,1161.4345670000039,1161.4345670000039,,,,,,,,,,,,,,,,,,,,,,,,,,,,,,,,,,,,,,,,,,,,,,,,,,005,001,2024-05-30_13h59.48.753,ps,2023.2.3,30.054262971249283,2024-05-30 13h59.59.001058 -0400,
mini_blocks/2d_single_mini_block_2.xlsx,"*Break*
Entering the 2D SIMULTANEOUS block
Rotation is Counter/Clockwise
Press <4> to continue",0,1,0,2D,None,180,False,False,None,obj1,240,60,output_pairs/2D_180/2D_180_obj_10_240_to_60deg.png,None,1076,comma,0,6,6,6,0,0,0,0,,,,,,,,,,,,,1165.0184204000034,,,,,,,,,,,,,,,,,,,,,,,,,,,,,,1161.4055616000041,1161.4345670000039,1161.4345670000039,1164.972945100002,rshift,3.5165425000013784,None,,,,,,,,,,,,,,,1167.6462635999997,1167.678549700002,1167.678549700002,1169.6698180000021,3.0,['slash'],[0.744418800000858],[None],1169.6700713000027,1169.7011446000033,1171.678747500002,,,,,,,,,,,,,,,1164.979308599999,1165.0184204000034,1165.9680939000027,1165.9680939000027,1166.0387849000035,1167.6459565999976,comma,1,1.654660000000149,None,,,,,,,,,,,,,,,,,,,,,,,,,,,,,,,,,,,,,,,,,,,,,,,,,,,,,,,,,,005,001,2024-05-30_13h59.48.753,ps,2023.2.3,30.054262971249283,2024-05-30 13h59.59.001058 -0400,
mini_blocks/2d_single_mini_block_2.xlsx,"*Break*
Entering the 2D SIMULTANEOUS block
Rotation is Counter/Clockwise
Press <4> to continue",0,1,0,2D,None,60,True,False,None,obj7,260,320,output_pairs/2D_60m/2D_60m_obj_7_260_to_320deg.png,None,571,period,0,6,6,6,0,1,1,1,,,,,,,,,,,,,1171.7211738000042,,,,,,,,,,,,,,,,,,,,,,,,,,,,,,,,,,,,,,,,,,,,,,,,,,,1175.7357332000029,1175.767934800002,1175.767934800002,1177.7409019999977,3.0,['slash'],[0.8947852000055718],[None],1177.7411082000035,1177.7724374000027,1179.7391551000037,,,,,,,,,,,,,,,1171.6789816000019,1171.7211738000042,1172.6724011999977,1172.6724011999977,1172.738865899999,1175.7355086000025,period,1,3.0298655000005965,None,,,,,,,,,,,,,,,,,,,,,,,,,,,,,,,,,,,,,,,,,,,,,,,,,,,,,,,,,,005,001,2024-05-30_13h59.48.753,ps,2023.2.3,30.054262971249283,2024-05-30 13h59.59.001058 -0400,
mini_blocks/2d_single_mini_block_2.xlsx,"*Break*
Entering the 2D SIMULTANEOUS block
Rotation is Counter/Clockwise
Press <4> to continue",0,1,0,2D,None,120,True,False,None,obj1,100,220,output_pairs/2D_120m/2D_120m_obj_11_100_to_220deg.png,None,1405,period,0,6,6,6,0,2,2,2,,,,,,,,,,,,,1179.776402399999,,,,,,,,,,,,,,,,,,,,,,,,,,,,,,,,,,,,,,,,,,,,,,,,,,,1183.8729062999992,1183.9055708000014,1183.9055708000014,1185.8801901999977,3.0,['slash'],[1.0047249999988708],[None],1185.8803359000012,1185.9118485,1187.8788664000022,,,,,,,,,,,,,,,1179.7393415999977,1179.776402399999,1180.7347800999996,1180.7347800999996,1180.8015409,1183.872710100004,period,1,3.127393700000539,None,,,,,,,,,,,,,,,,,,,,,,,,,,,,,,,,,,,,,,,,,,,,,,,,,,,,,,,,,,005,001,2024-05-30_13h59.48.753,ps,2023.2.3,30.054262971249283,2024-05-30 13h59.59.001058 -0400,
mini_blocks/2d_single_mini_block_2.xlsx,"*Break*
Entering the 2D SIMULTANEOUS block
Rotation is Counter/Clockwise
Press <4> to continue",0,1,0,2D,None,120,True,False,None,obj2,120,240,output_pairs/2D_120m/2D_120m_obj_2_120_to_240deg.png,None,1399,period,0,6,6,6,0,3,3,3,,,,,,,,,,,,,1187.9240396000023,,,,,,,,,,,,,,,,,,,,,,,,,,,,,,,,,,,,,,,,,,,,,,,,,,,1191.9687374999994,1192.0010352000027,1192.0010352000027,1193.9742582000035,4.0,['rshift'],[0.6367208000010578],[None],1193.974407200003,1194.0058042000019,1196.0058242000014,,,,,,,,,,,,,,,1187.8790483999983,1187.9240396000023,1188.9013511000012,1188.9013511000012,1188.938635999999,1191.9684679999991,period,1,3.0483053999996628,None,,,,,,,,,,,,,,,,,,,,,,,,,,,,,,,,,,,,,,,,,,,,,,,,,,,,,,,,,,005,001,2024-05-30_13h59.48.753,ps,2023.2.3,30.054262971249283,2024-05-30 13h59.59.001058 -0400,
mini_blocks/2d_single_mini_block_2.xlsx,"*Break*
Entering the 2D SIMULTANEOUS block
Rotation is Counter/Clockwise
Press <4> to continue",0,1,0,2D,None,180,True,False,None,sm4,0,180,output_pairs/2D_180m/2D_180m_SM4_0_to_180deg.png,None,1360,period,0,6,6,6,0,4,4,4,,,,,,,,,,,,,1196.0462974999973,,,,,,,,,,,,,,,,,,,,,,,,,,,,,,,,,,,,,,,,,,,,,,,,,,,1200.9396592999983,1200.9721967000005,1200.9721967000005,1202.9698352999985,4.0,['rshift'],[0.8424090999978944],[None],1202.9699917000034,1203.001257900003,1204.9727692000015,,,,,,,,,,,,,,,1196.0060034999988,1196.0462974999973,1196.9682060999985,1196.9682060999985,1197.0681724000024,1200.9394653999989,comma,0,3.942021900002146,None,,,,,,,,,,,,,,,,,,,,,,,,,,,,,,,,,,,,,,,,,,,,,,,,,,,,,,,,,,005,001,2024-05-30_13h59.48.753,ps,2023.2.3,30.054262971249283,2024-05-30 13h59.59.001058 -0400,
mini_blocks/2d_single_mini_block_2.xlsx,"*Break*
Entering the 2D SIMULTANEOUS block
Rotation is Counter/Clockwise
