condition_file,message_to_show,repN_wm,repN_single,repN_break,dimension,rot_type,angle,mirror,wm,pair_id,obj_id,orientation1,orientation2,image_path_1,image_path_2,marker_id,correctAns,block_loop_main.thisRepN,block_loop_main.thisTrialN,block_loop_main.thisN,block_loop_main.thisIndex,simu_trials_loop.thisRepN,simu_trials_loop.thisTrialN,simu_trials_loop.thisN,simu_trials_loop.thisIndex,wm_trials_loop.thisRepN,wm_trials_loop.thisTrialN,wm_trials_loop.thisN,wm_trials_loop.thisIndex,block_loop_3dd.thisRepN,block_loop_3dd.thisTrialN,block_loop_3dd.thisN,block_loop_3dd.thisIndex,first_3Dd_wm.thisRepN,first_3Dd_wm.thisTrialN,first_3Dd_wm.thisN,first_3Dd_wm.thisIndex,thisRow.t,notes,start.started,text_start.started,key_resp_start.started,start.stopped,key_resp_start.keys,key_resp_start.rt,key_resp_start.duration,instructions.started,key_resp_12.started,image_8.started,instructions.stopped,key_resp_12.keys,key_resp_12.rt,key_resp_12.duration,instructions_2.started,image_9.started,key_resp_20.started,instructions_2.stopped,key_resp_20.keys,key_resp_20.rt,key_resp_20.duration,instructions_3.started,image_10.started,key_resp_21.started,instructions_3.stopped,key_resp_21.keys,key_resp_21.rt,key_resp_21.duration,before_block_instr.started,text_13.started,key_resp_7.started,before_block_instr.stopped,key_resp_7.keys,key_resp_7.rt,key_resp_7.duration,routine_wm.started,text_4.started,img1.started,text_4.stopped,text_5.started,img1.stopped,text_5.stopped,img2.started,key_resp_3.started,routine_wm.stopped,key_resp_3.keys,key_resp_3.corr,key_resp_3.rt,key_resp_3.duration,vividness.started,image_vivid.started,key_resp_vivid_slider_control.started,vividness.stopped,vivid_response,key_resp_vivid_slider_control.keys,key_resp_vivid_slider_control.rt,key_resp_vivid_slider_control.duration,ITI.started,text_2.started,ITI.stopped,image_vivid.stopped,key_resp_vivid_slider_control.stopped,text_2.stopped,strat.started,image_strat.started,key_resp_strat_control.started,strat.stopped,strategy_response,key_resp_strat_control.keys,key_resp_strat_control.rt,key_resp_strat_control.duration,break_2.started,break_2.stopped,key_resp_13.keys,routine_simu.started,text.started,image.started,key_resp.started,text.stopped,image.stopped,key_resp.stopped,routine_simu.stopped,key_resp.keys,key_resp.corr,key_resp.rt,key_resp.duration,image_strat.stopped,key_resp_strat_control.stopped,text_17.started,key_resp_13.started,key_resp_13.rt,key_resp_13.duration,practice_3Dd_screen.started,image_11.started,key_resp_22.started,practice_3Dd_screen.stopped,key_resp_22.keys,key_resp_22.rt,key_resp_22.duration,practice_1_3Dd.started,image_12.started,key_resp_23.started,practice_1_3Dd.stopped,key_resp_23.keys,key_resp_23.rt,key_resp_23.duration,practice_2_3Dd.started,image_13.started,key_resp_24.started,practice_2_3Dd.stopped,key_resp_24.keys,key_resp_24.rt,key_resp_24.duration,wm_3Dd_screen.started,text_16.started,key_resp_11.started,wm_3Dd_screen.stopped,key_resp_11.keys,key_resp_11.rt,key_resp_11.duration,routine_3Dd_wm.started,text_8.started,image_6.started,text_8.stopped,image_6.stopped,text_12.started,image_7.started,key_resp_6.started,text_12.stopped,routine_3Dd_wm.stopped,key_resp_6.keys,key_resp_6.corr,key_resp_6.rt,key_resp_6.duration,end.started,text_22.started,key_resp_18.started,end.stopped,key_resp_18.keys,key_resp_18.rt,key_resp_18.duration,participant,session,date,expName,psychopyVersion,frameRate,expStart,
,,,,,,,,,,,,,,,,,,,,,,,,,,,,,,,,,,,,,,,,0.014089800009969622,0.03959450000547804,0.03959450000547804,2.1736449000018183,rshift,2.120982799999183,None,,,,,,,,,,,,,,,,,,,,,,,,,,,,,,,,,,,,,,,,,,,,,,,,,,,,,,,,,,,,,,,,,,,,,,,,,,,,,,,,,,,,,,,,,,,,,,,,,,,,,,,,,,,,,,,,,,,,,,,,,,,,,,,,,,,,,,,006,001,2024-05-31_15h27.47.805,ps,2023.2.3,29.91209731973016,2024-05-31 15h28.00.914476 -0400,
,,,,,,,,,,,,,,,,,,,,,,,,,,,,,,,,,,,,,,,,,,,,,,,2.1736624000186566,2.205584000010276,2.205584000010276,18.01037420000648,rshift,15.772071100014728,None,,,,,,,,,,,,,,,,,,,,,,,,,,,,,,,,,,,,,,,,,,,,,,,,,,,,,,,,,,,,,,,,,,,,,,,,,,,,,,,,,,,,,,,,,,,,,,,,,,,,,,,,,,,,,,,,,,,,,,,,,,,,,,,,006,001,2024-05-31_15h27.47.805,ps,2023.2.3,29.91209731973016,2024-05-31 15h28.00.914476 -0400,
,,,,,,,,,,,,,,,,,,,,,,,,,,,,,,,,,,,,,,,,,,,,,,,,,,,,,,18.01039209999726,18.043379700015066,18.043379700015066,36.61016790001304,rshift,18.54173259998788,None,,,,,,,,,,,,,,,,,,,,,,,,,,,,,,,,,,,,,,,,,,,,,,,,,,,,,,,,,,,,,,,,,,,,,,,,,,,,,,,,,,,,,,,,,,,,,,,,,,,,,,,,,,,,,,,,,,,,,,,,,006,001,2024-05-31_15h27.47.805,ps,2023.2.3,29.91209731973016,2024-05-31 15h28.00.914476 -0400,
,,,,,,,,,,,,,,,,,,,,,,,,,,,,,,,,,,,,,,,,,,,,,,,,,,,,,,,,,,,,,36.61018519999925,36.643024799996056,36.643024799996056,66.17716099999961,rshift,29.51815620000707,None,,,,,,,,,,,,,,,,,,,,,,,,,,,,,,,,,,,,,,,,,,,,,,,,,,,,,,,,,,,,,,,,,,,,,,,,,,,,,,,,,,,,,,,,,,,,,,,,,,,,,,,,,,,,,,,,,,006,001,2024-05-31_15h27.47.805,ps,2023.2.3,29.91209731973016,2024-05-31 15h28.00.914476 -0400,
mini_blocks/3dp_wm_mini_block_1.xlsx,"*Break*
Entering the 3D WORKING MEMORY block
Rotation is Counter/Clockwise
Press <4> to continue",1,0,0,3D,p,180,False,True,25,obj5,340,160,output_pairs/3Dp_180_WM/3Dp_60_WM_25_1_obj_5_340deg.png,output_pairs/3Dp_180_WM/3Dp_60_WM_25_2_obj_5_160deg.png,492,comma,0,0,0,0,,,,,0,0,0,0,,,,,,,,,75.00280740001472,,,,,,,,,,,,,,,,,,,,,,,,,,,,,,66.18230099999346,66.209984599991,66.209984599991,74.81128100000205,rshift,8.59133130000555,None,74.8250578000152,75.00280740001472,75.84388080000645,76.0061714000185,79.8106333000178,79.84403350000503,80.85012829999323,80.85012829999323,80.85012829999323,83.30741350000608,period,0,2.4552165000059176,None,83.30783150001662,83.34392030001618,83.34392030001618,85.34145549999084,1.0,['comma'],[1.6098726999771316],[None],85.34170760001871,85.37266180000734,87.31090109999059,,,,,,,,,,,,,,,,,,,,,,,,,,,,,,,,,,,,,,,,,,,,,,,,,,,,,,,,,,,,,,,,,,,,,,,,,,,,,,,,,,006,001,2024-05-31_15h27.47.805,ps,2023.2.3,29.91209731973016,2024-05-31 15h28.00.914476 -0400,
mini_blocks/3dp_wm_mini_block_1.xlsx,"*Break*
Entering the 3D WORKING MEMORY block
Rotation is Counter/Clockwise
Press <4> to continue",1,0,0,3D,p,120,False,True,12,obj1,0,240,output_pairs/3Dp_120_WM/3Dp_120_WM_12_1_obj_15_0deg.png,output_pairs/3Dp_120_WM/3Dp_120_WM_12_2_obj_15_240deg.png,351,comma,0,0,0,0,,,,,0,1,1,1,,,,,,,,,87.37604800000554,,,,,,,,,,,,,,,,,,,,,,,,,,,,,,,,,,,,,87.31109249999281,87.37604800000554,88.31665330001852,88.38363090000348,92.33921140001621,92.33921140001621,93.3393638000125,93.3393638000125,93.3393638000125,97.47382450001896,period,0,4.101725399988936,None,97.47403549999581,97.50612710000132,97.50612710000132,99.47722760000033,1.0,['comma'],[1.7763399000104982],[None],99.47737770000822,99.50621620001039,101.47382539999671,99.50621620001039,99.50621620001039,101.5348423999967,,,,,,,,,,,,,,,,,,,,,,,,,,,,,,,,,,,,,,,,,,,,,,,,,,,,,,,,,,,,,,,,,,,,,,,,,,,,,,,006,001,2024-05-31_15h27.47.805,ps,2023.2.3,29.91209731973016,2024-05-31 15h28.00.914476 -0400,
mini_blocks/3dp_wm_mini_block_1.xlsx,"*Break*
Entering the 3D WORKING MEMORY block
Rotation is Counter/Clockwise
Press <4> to continue",1,0,0,3D,p,180,False,True,15,sm1,200,20,output_pairs/3Dp_180_WM/3Dp_60_WM_15_1_sm_1_200deg.png,output_pairs/3Dp_180_WM/3Dp_60_WM_15_2_sm_1_20deg.png,481,comma,0,0,0,0,,,,,0,2,2,2,,,,,,,,,101.5348423999967,,,,,,,,,,,,,,,,,,,,,,,,,,,,,,,,,,,,,101.47400310001103,101.5348423999967,102.47302950001904,102.54399189999094,106.50621620001039,106.47277300001588,107.51084800000535,107.47752660000697,107.47752660000697,109.77378270000918,comma,1,2.284226999996463,None,109.77399200000218,109.80619030000526,109.80619030000526,111.77680900000269,2.0,['period'],[1.483758200018201],[None],111.77696119999746,111.80630810000002,113.77782069999375,111.80630810000002,111.80630810000002,,,,,,,,,,,,,,,,,,,,,,,,,,,,,,,,,,,,,,,,,,,,,,,,,,,,,,,,,,,,,,,,,,,,,,,,,,,,,,,,006,001,2024-05-31_15h27.47.805,ps,2023.2.3,29.91209731973016,2024-05-31 15h28.00.914476 -0400,
mini_blocks/3dp_wm_mini_block_1.xlsx,"*Break*
Entering the 3D WORKING MEMORY block
Rotation is Counter/Clockwise
Press <4> to continue",1,0,0,3D,p,0,True,True,12,obj7,240,240,output_pairs/3Dp_0_M_WM/3Dp_0_M_WM_12_1_obj_7_240deg.png,output_pairs/3Dp_0_M_WM/3Dp_0_M_WM_12_2_obj_7_240deg.png,522,period,0,0,0,0,,,,,0,3,3,3,,,,,,,,,113.83705990001909,,,,,,,,,,,,,,,,,,,,,,,,,,,,,,,,,,,,,113.77799590001814,113.83705990001909,114.77318029999151,114.85000999999465,118.77747890001046,118.77747890001046,119.78378970001359,119.78378970001359,119.78378970001359,126.24492810000083,period,1,6.434865199989872,None,126.24512540001888,126.27756990000489,126.27756990000489,128.27455999999074,None,None,,,128.274650700012,128.30623069999274,130.27767770001083,,,,,,,,,,,,,,,,,,,,,,,,,,,,,,,,,,,,,,,,,,,,,,,,,,,,,,,,,,,,,,,,,,,,,,,,,,,,,,,,,,006,001,2024-05-31_15h27.47.805,ps,2023.2.3,29.91209731973016,2024-05-31 15h28.00.914476 -0400,
mini_blocks/3dp_wm_mini_block_1.xlsx,"*Break*
Entering the 3D WORKING MEMORY block
Rotation is Counter/Clockwise
Press <4> to continue",1,0,0,3D,p,120,True,True,15,obj6,80,320,output_pairs/3Dp_120_M_WM/3Dp_120_M_WM_15_1_obj_6_80deg.png,output_pairs/3Dp_120_M_WM/3Dp_120_M_WM_15_2_obj_6_320deg.png,660,period,0,0,0,0,,,,,0,4,4,4,,,,,,,,,130.34469759999774,,,,,,,,,,,,,,,,,,,,,,,,,,,,,,,,,,,,,130.27785340000992,130.34469759999774,131.25020529999165,131.33999110001605,135.24421190001885,135.27750280001783,136.27765590001945,136.27765590001945,136.27765590001945,139.14050770000904,comma,0,2.836426499998197,None,139.14071880001575,139.17294370001764,139.17294370001764,141.14601640001638,None,None,,,141.1461038000125,141.1776075999951,143.17323499999475,,,,,,,,,,,,,,,,,,,,,,,,,,,,,,,,,,,,,,,,,,,,,,,,,,,,,,,,,,,,,,,,,,,,,,,,,,,,,,,,,,006,001,2024-05-31_15h27.47.805,ps,2023.2.3,29.91209731973016,2024-05-31 15h28.00.914476 -0400,
mini_blocks/3dp_wm_mini_block_1.xlsx,"*Break*
Entering the 3D WORKING MEMORY block
Rotation is Counter/Clockwise
Press <4> to continue",1,0,0,3D,p,180,True,True,16,sm5,60,240,output_pairs/3Dp_180_M_WM/3Dp_180_M_WM_16_1_sm_5_60deg.png,output_pairs/3Dp_180_M_WM/3Dp_180_M_WM_16_2_sm_5_240deg.png,47,period,0,0,0,0,,,,,0,5,5,5,,,,,,,,,143.22373270001845,,,,,,,,,,,,,,,,,,,,,,,,,,,,,,,,,,,,,143.17341190000298,143.22373270001845,144.1441553000186,144.23998720000964,148.13994459999958,148.1734759999963,149.13963570000487,149.17298920001485,149.17298920001485,152.07427040001494,period,1,2.900217300018994,None,152.07448559999466,152.10632419999456,152.10632419999456,154.07694379999884,1.0,['comma'],[0.7755003999918699],[None],154.0770955000189,154.10633629999938,156.08365119999507,154.10633629999938,154.10633629999938,,,,,,,,,,,,,,,,,,,,,,,,,,,,,,,,,,,,,,,,,,,,,,,,,,,,,,,,,,,,,,,,,,,,,,,,,,,,,,,,006,001,2024-05-31_15h27.47.805,ps,2023.2.3,29.91209731973016,2024-05-31 15h28.00.914476 -0400,
mini_blocks/3dp_wm_mini_block_1.xlsx,"*Break*
Entering the 3D WORKING MEMORY block
Rotation is Counter/Clockwise
Press <4> to continue",1,0,0,3D,p,60,True,True,16,obj4,60,0,output_pairs/3Dp_60_M_WM/3Dp_60_M_WM_16_1_obj_4_60deg.png,output_pairs/3Dp_60_M_WM/3Dp_60_M_WM_16_2_obj_4_0deg.png,296,period,0,0,0,0,,,,,0,6,6,6,,,,,,,,,156.14868489999208,,,,,,,,,,,,,,,,,,,,,,,,,,,,,,,,,,,,,156.0838439000072,156.14868489999208,157.10658300001523,157.17325680001522,161.07764730000054,161.11097890001838,162.07772520001163,162.07772520001163,162.07772520001163,164.74070170000778,comma,0,2.635884699993767,None,164.74091310001677,164.7729767000128,164.7729767000128,166.746212500002,2.0,['period'],[0.8845763000135776],[None],166.74636059999466,166.77776359999552,168.74464839999564,,,,,,,,,,,,,,,,,,,,,,,,,,,,,,,,,,,,,,,,,,,,,,,,,,,,,,,,,,,,,,,,,,,,,,,,,,,,,,,,,,006,001,2024-05-31_15h27.47.805,ps,2023.2.3,29.91209731973016,2024-05-31 15h28.00.914476 -0400,
mini_blocks/3dp_wm_mini_block_1.xlsx,"*Break*
Entering the 3D WORKING MEMORY block
Rotation is Counter/Clockwise
Press <4> to continue",1,0,0,3D,p,60,False,True,13,obj1,180,120,output_pairs/3Dp_60_WM/3Dp_60_WM_13_1_obj_13_180deg.png,output_pairs/3Dp_60_WM/3Dp_60_WM_13_2_obj_13_120deg.png,409,comma,0,0,0,0,,,,,0,7,7,7,,,,,,,,,168.82961660000728,,,,,,,,,,,,,,,,,,,,,,,,,,,,,,,,,,,,,168.74491149999085,168.82961660000728,169.7400134000054,169.83996979999938,173.7730841000157,173.73986299999524,174.77781640001922,174.74450530001195,174.74450530001195,178.7409134999907,comma,1,3.968478099995991,None,178.7413107000175,178.77325260001817,178.77325260001817,180.7461387999938,2.0,['period'],[0.7813152000016998],[None],180.74629000001005,180.77779230001033,182.77354860000196,,,,,,,,,,,,,,,,,,,,,,,,,,,,,,,,,,,,,,,,,,,,,,,,,,,,,,,,,,,,,,,,,,,,,,,,,,,,,,,,,,006,001,2024-05-31_15h27.47.805,ps,2023.2.3,29.91209731973016,2024-05-31 15h28.00.914476 -0400,
mini_blocks/3dp_wm_mini_block_1.xlsx,"*Break*
Entering the 3D WORKING MEMORY block
Rotation is Counter/Clockwise
Press <4> to continue",1,0,0,3D,p,0,False,True,22,obj9,340,340,output_pairs/3Dp_0_WM/3Dp_0_WM_22_1_obj_9_340deg.png,output_pairs/3Dp_0_WM/3Dp_0_WM_22_2_obj_9_340deg.png,97,comma,0,0,0,0,,,,,0,8,8,8,,,,,,,,,182.82703300000867,,,,,,,,,,,,,,,,,,,,,,,,,,,,,,,,,,,,,182.77381590000005,182.82703300000867,183.77776530000847,183.84461140001076,187.77309659999446,187.8065784999926,188.7734957000066,188.74449850001838,188.74449850001838,190.47411979999742,comma,1,1.721718900022097,None,190.47433420000016,190.506495300011,190.506495300011,192.4772088000027,3.0,['slash'],[1.655705899989698],[None],192.4773797999951,192.5065859000024,194.47794959999737,192.5065859000024,192.5065859000024,,,,,,,,,,,,,,,,,,,,,,,,,,,,,,,,,,,,,,,,,,,,,,,,,,,,,,,,,,,,,,,,,,,,,,,,,,,,,,,,006,001,2024-05-31_15h27.47.805,ps,2023.2.3,29.91209731973016,2024-05-31 15h28.00.914476 -0400,
mini_blocks/3dp_wm_mini_block_1.xlsx,"*Break*
Entering the 3D WORKING MEMORY block
Rotation is Counter/Clockwise
Press <4> to continue",1,0,0,3D,p,120,False,True,15,obj1,260,20,output_pairs/3Dp_120_WM/3Dp_120_WM_15_1_obj_1_260deg.png,output_pairs/3Dp_120_WM/3Dp_120_WM_15_2_obj_1_20deg.png,336,comma,0,0,0,0,,,,,0,9,9,9,,,,,,,,,194.5596258000005,,,,,,,,,,,,,,,,,,,,,,,,,,,,,,,,,,,,,194.47813979999046,194.5596258000005,195.47799760001362,195.5839065000182,199.473427799996,199.50688800000353,200.47353630000725,200.47353630000725,200.47353630000725,205.1451936000085,comma,1,4.6401286000036635,None,205.14540140001918,205.1778678999981,205.1778678999981,207.17523990001064,2.0,['period'],[1.0399499000050128],[None],207.17539750001743,207.206554400007,209.1780384000158,,,,,,,,,,,,,,,,,,,,,,,,,,,,,,,,,,,,,,,,,,,,,,,,,,,,,,,,,,,,,,,,,,,,,,,,,,,,,,,,,,006,001,2024-05-31_15h27.47.805,ps,2023.2.3,29.91209731973016,2024-05-31 15h28.00.914476 -0400,
mini_blocks/3dp_wm_mini_block_1.xlsx,"*Break*
Entering the 3D WORKING MEMORY block
Rotation is Counter/Clockwise
Press <4> to continue",1,0,0,3D,p,60,False,True,23,obj8,20,80,output_pairs/3Dp_60_WM/3Dp_60_WM_23_1_obj_8_20deg.png,output_pairs/3Dp_60_WM/3Dp_60_WM_23_2_obj_8_80deg.png,402,comma,0,0,0,0,,,,,0,10,10,10,,,,,,,,,209.23379050000221,,,,,,,,,,,,,,,,,,,,,,,,,,,,,,,,,,,,,209.17822689999593,209.23379050000221,210.15099739999278,210.25065780000295,214.14460210001562,214.177886999998,215.144692700007,215.144692700007,215.144692700007,218.24105499999132,comma,1,3.0728641000168864,None,218.24126450001495,218.27351260001888,218.27351260001888,220.24634869999136,2.0,['period'],[0.8642335000040475],[None],220.24653140001465,220.27785820001736,222.27795340001467,,,,,,,,,,,,,,,,,,,,,,,,,,,,,,,,,,,,,,,,,,,,,,,,,,,,,,,,,,,,,,,,,,,,,,,,,,,,,,,,,,006,001,2024-05-31_15h27.47.805,ps,2023.2.3,29.91209731973016,2024-05-31 15h28.00.914476 -0400,
mini_blocks/3dp_wm_mini_block_1.xlsx,"*Break*
Entering the 3D WORKING MEMORY block
Rotation is Counter/Clockwise
Press <4> to continue",1,0,0,3D,p,120,True,True,8,obj5,200,320,output_pairs/3Dp_120_M_WM/3Dp_120_M_WM_08_1_obj_5_200deg.png,output_pairs/3Dp_120_M_WM/3Dp_120_M_WM_08_2_obj_5_320deg.png,651,period,0,0,0,0,,,,,0,11,11,11,,,,,,,,,222.32839209999656,,,,,,,,,,,,,,,,,,,,,,,,,,,,,,,,,,,,,222.27814670000225,222.32839209999656,223.25049840001157,223.35045080000418,227.27349970000796,227.27349970000796,228.27809659999912,228.2448418000131,228.2448418000131,231.30769919999875,period,1,3.0447222999937367,None,231.30790980000165,231.33994579999126,231.33994579999126,233.3131996000011,1.0,['comma'],[1.8289199999999255],[None],233.31336190001457,233.3402965000132,235.3074942000094,,,235.36581360001583,,,,,,,,,,,,,,,,,,,,,,,,,,,,,,,,,,,,,,,,,,,,,,,,,,,,,,,,,,,,,,,,,,,,,,,,,,,,,,,006,001,2024-05-31_15h27.47.805,ps,2023.2.3,29.91209731973016,2024-05-31 15h28.00.914476 -0400,
mini_blocks/3dp_wm_mini_block_1.xlsx,"*Break*
Entering the 3D WORKING MEMORY block
Rotation is Counter/Clockwise
Press <4> to continue",1,0,0,3D,p,60,True,True,32,sm5,100,160,output_pairs/3Dp_60_M_WM/3Dp_60_M_WM_32_1_sm_5_100deg.png,output_pairs/3Dp_60_M_WM/3Dp_60_M_WM_32_2_sm_5_160deg.png,314,period,0,0,0,0,,,,,0,12,12,12,,,,,,,,,235.36581360001583,,,,,,,,,,,,,,,,,,,,,,,,,,,,,,,,,,,,,235.30767159999232,235.36581360001583,236.31118469999637,236.38384260001476,240.30703850000282,240.34470529999817,241.30699730000924,241.30699730000924,241.30699730000924,243.08497429999989,period,1,1.7512931999808643,None,243.08531080000103,243.10689749999437,243.10689749999437,245.07723270001588,1.0,['comma'],[0.7513755999971181],[None],245.0774156000116,245.1068333000003,247.08441480001784,245.1068333000003,245.1068333000003,247.1454241000174,,,,,,,,,,,,,,,,,,,,,,,,,,,,,,,,,,,,,,,,,,,,,,,,,,,,,,,,,,,,,,,,,,,,,,,,,,,,,,,006,001,2024-05-31_15h27.47.805,ps,2023.2.3,29.91209731973016,2024-05-31 15h28.00.914476 -0400,
mini_blocks/3dp_wm_mini_block_1.xlsx,"*Break*
Entering the 3D WORKING MEMORY block
Rotation is Counter/Clockwise
Press <4> to continue",1,0,0,3D,p,0,False,True,19,obj1,80,80,output_pairs/3Dp_0_WM/3Dp_0_WM_19_1_obj_14_80deg.png,output_pairs/3Dp_0_WM/3Dp_0_WM_19_2_obj_14_80deg.png,124,comma,0,0,0,0,,,,,0,13,13,13,,,,,,,,,247.1454241000174,,,,,,,,,,,,,,,,,,,,,,,,,,,,,,,,,,,,,247.08457239999552,247.1454241000174,248.11134669999592,248.14040450000903,252.10704370000167,252.10704370000167,253.10711420001462,253.10711420001462,253.10711420001462,254.5744265000103,comma,1,1.446243400016101,None,254.574646699999,254.60675700000138,254.60675700000138,256.57701880001696,4.0,['rshift'],[1.8101234000059776],[None],256.5771722999925,256.6069628999976,258.57829770000535,256.6069628999976,256.6069628999976,,,,,,,,,,,,,,,,,,,,,,,,,,,,,,,,,,,,,,,,,,,,,,,,,,,,,,,,,,,,,,,,,,,,,,,,,,,,,,,,006,001,2024-05-31_15h27.47.805,ps,2023.2.3,29.91209731973016,2024-05-31 15h28.00.914476 -0400,
mini_blocks/3dp_wm_mini_block_1.xlsx,"*Break*
Entering the 3D WORKING MEMORY block
Rotation is Counter/Clockwise
Press <4> to continue",1,0,0,3D,p,0,True,True,31,obj8,100,100,output_pairs/3Dp_0_M_WM/3Dp_0_M_WM_31_1_obj_8_100deg.png,output_pairs/3Dp_0_M_WM/3Dp_0_M_WM_31_2_obj_8_100deg.png,524,period,0,0,0,0,,,,,0,14,14,14,,,,,,,,,258.635912800004,,,,,,,,,,,,,,,,,,,,,,,,,,,,,,,,,,,,,258.57848500000546,258.635912800004,259.5838419999927,259.6509369999985,263.57813780001015,263.6114721999911,264.58419280001544,264.58419280001544,264.58419280001544,267.10785540001234,comma,0,2.498111799999606,None,267.10817620001035,267.1402742000064,267.1402742000064,269.11322830000427,3.0,['slash'],[0.9007043000019621],[None],269.1134173000173,269.1447879000043,271.1173783999984,,,,,,,,,,,,,,,,,,,,,,,,,,,,,,,,,,,,,,,,,,,,,,,,,,,,,,,,,,,,,,,,,,,,,,,,,,,,,,,,,,006,001,2024-05-31_15h27.47.805,ps,2023.2.3,29.91209731973016,2024-05-31 15h28.00.914476 -0400,
mini_blocks/3dp_wm_mini_block_1.xlsx,"*Break*
Entering the 3D WORKING MEMORY block
Rotation is Counter/Clockwise
Press <4> to continue",1,0,0,3D,p,180,True,True,1,obj7,320,140,output_pairs/3Dp_180_M_WM/3Dp_180_M_WM_01_1_obj_7_320deg.png,output_pairs/3Dp_180_M_WM/3Dp_180_M_WM_01_2_obj_7_140deg.png,63,period,0,0,0,0,,,,,0,15,15,15,,,,,,,,,271.1678091000067,,,,,,,,,,,,,,,,,,,,,,,,,,,,,,,,,,,,,271.1175668000069,271.1678091000067,272.14046759999474,272.17371780000394,276.14019380000536,276.14019380000536,277.1403000999999,277.1403000999999,277.1403000999999,280.0455782999925,comma,0,2.8937781999993604,None,280.0458561000123,280.07828300000983,280.07828300000983,282.0754241000104,2.0,['period'],[0.7959049999772105],[None],282.0755856000178,282.1067455000011,284.0738495000114,,,,,,,,,,,,,,,,,,,,,,,,,,,,,,,,,,,,,,,,,,,,,,,,,,,,,,,,,,,,,,,,,,,,,,,,,,,,,,,,,,006,001,2024-05-31_15h27.47.805,ps,2023.2.3,29.91209731973016,2024-05-31 15h28.00.914476 -0400,
mini_blocks/3dp_wm_mini_block_1.xlsx,"*Break*
Entering the 3D WORKING MEMORY block
Rotation is Counter/Clockwise
Press <4> to continue",1,0,0,,,,,,,,,,,,,,0,0,0,0,,,,,,,,,,,,,,,,,,,,,,,,,,,,,,,,,,,,,,,,,,,,,,,,,,,,,,,,,,,,,,,,,,,,,,,,,,,,,,,,,,284.07393320000847,284.1070475000015,284.1070475000015,292.07547730000806,4.0,['rshift'],[5.358296299993526],[None],292.0757344000158,292.07576189999236,None,,,,,,,,,,,,,,,,,,,,,,,,,,,,,,,,,,,,,,,,,,,,,,,,,,,,,,,,,,,,,,,,,,,,006,001,2024-05-31_15h27.47.805,ps,2023.2.3,29.91209731973016,2024-05-31 15h28.00.914476 -0400,
mini_blocks/3dp_single_mini_block_1.xlsx,"*Break*
Entering the 3D SIMULTANEOUS block
Rotation is Counter/Clockwise
Press <4> to continue",0,1,0,3D,p,120,False,False,None,obj7,160,280,output_pairs/3Dp_120/3Dp_120_obj_7_160_to_280deg.png,None,708,comma,0,1,1,1,0,0,0,0,,,,,,,,,,,,,301.13823240000056,,,,,,,,,,,,,,,,,,,,,,,,,,,,,,292.07591169999796,292.1069242999947,292.1069242999947,301.0079846000008,rshift,8.879225999990012,None,,,,,,,,,,,,,,,310.9747312999971,311.04043570000795,311.04043570000795,313.0134539999999,None,None,,,313.013580800005,313.04502680001315,315.040682699997,,,,,,,,,,,,,,,301.0273019000015,301.13823240000056,302.00728459999664,302.00728459999664,302.1408538999967,311.0069871000014,311.0069871000014,310.97442969999975,None,0,,,,,,,,,,,,,,,,,,,,,,,,,,,,,,,,,,,,,,,,,,,,,,,,,,,,,,,,,,006,001,2024-05-31_15h27.47.805,ps,2023.2.3,29.91209731973016,2024-05-31 15h28.00.914476 -0400,
mini_blocks/3dp_single_mini_block_1.xlsx,"*Break*
Entering the 3D SIMULTANEOUS block
Rotation is Counter/Clockwise
Press <4> to continue",0,1,0,3D,p,60,False,False,None,obj4,280,340,output_pairs/3Dp_60/3Dp_60_obj_4_280_to_340deg.png,None,1619,comma,0,1,1,1,0,1,1,1,,,,,,,,,,,,,315.08059600001434,,,,,,,,,,,,,,,,,,,,,,,,,,,,,,,,,,,,,,,,,,,,,,,,,,,320.6787493000156,320.71124989999225,320.71124989999225,322.7090206000139,3.0,['slash'],[1.434586199990008],[None],322.7092529000074,322.74043890001485,324.70729610000853,,,,,,,,,,,,,,,315.04093990000547,315.08059600001434,316.00745450000977,316.00745450000977,316.10734700001194,,,320.6784810000099,comma,1,4.643081199988956,None,,,,,,,,,,,,,,,,,,,,,,,,,,,,,,,,,,,,,,,,,,,,,,,,,,,,,,,,006,001,2024-05-31_15h27.47.805,ps,2023.2.3,29.91209731973016,2024-05-31 15h28.00.914476 -0400,
mini_blocks/3dp_single_mini_block_1.xlsx,"*Break*
Entering the 3D SIMULTANEOUS block
Rotation is Counter/Clockwise
Press <4> to continue",0,1,0,3D,p,180,False,False,None,obj8,40,220,output_pairs/3Dp_180/3Dp_180_obj_8_40_to_220deg.png,None,767,comma,0,1,1,1,0,2,2,2,,,,,,,,,,,,,324.7452340000018,,,,,,,,,,,,,,,,,,,,,,,,,,,,,,,,,,,,,,,,,,,,,,,,,,,328.9083299000049,328.9404693999968,328.9404693999968,330.91356200000155,None,None,,,330.91364939999767,330.9451678000041,332.9177662000002,,,,,,,,,,,,,,,324.7075543999963,324.7452340000018,325.678568000003,325.678568000003,325.7448391999933,,,328.9080990999937,period,0,3.2279591000115033,None,,,,,,,,,,,,,,,,,,,,,,,,,,,,,,,,,,,,,,,,,,,,,,,,,,,,,,,,006,001,2024-05-31_15h27.47.805,ps,2023.2.3,29.91209731973016,2024-05-31 15h28.00.914476 -0400,
mini_blocks/3dp_single_mini_block_1.xlsx,"*Break*
Entering the 3D SIMULTANEOUS block
Rotation is Counter/Clockwise
Press <4> to continue",0,1,0,3D,p,120,True,False,None,obj1,200,320,output_pairs/3Dp_120m/3Dp_120m_obj_10_200_to_320deg.png,None,2138,period,0,1,1,1,0,3,3,3,,,,,,,,,,,,,332.9686488000152,,,,,,,,,,,,,,,,,,,,,,,,,,,,,,,,,,,,,,,,,,,,,,,,,,,337.44165970000904,337.4739136999997,337.4739136999997,339.44687380001415,None,None,,,339.4469625999918,339.47837290001917,341.47420510000666,,,,,,,,,,,,,,,332.9179426000046,332.9686488000152,333.90764180000406,333.90764180000406,333.9740308000182,,,337.441444600001,period,1,3.5179844000085723,None,,,,,,,,,,,,,,,,,,,,,,,,,,,,,,,,,,,,,,,,,,,,,,,,,,,,,,,,006,001,2024-05-31_15h27.47.805,ps,2023.2.3,29.91209731973016,2024-05-31 15h28.00.914476 -0400,
mini_blocks/3dp_single_mini_block_1.xlsx,"*Break*
Entering the 3D SIMULTANEOUS block
Rotation is Counter/Clockwise
Press <4> to continue",0,1,0,3D,p,0,True,False,None,obj5,180,None,output_pairs/3Dp_0m/3Dp_0m_obj_5_180deg.png,None,1710,period,0,1,1,1,0,4,4,4,,,,,,,,,,,,,341.5197273000085,,,,,,,,,,,,,,,,,,,,,,,,,,,,,,,,,,,,,,,,,,,,,,,,,,,347.5752472000022,347.611353699991,347.611353699991,349.60901760001434,3.0,['slash'],[0.9750657000113279],[None],349.6092024999962,349.640513499995,351.57868840001174,,,,,,,,,,,,,,,341.47448840001016,341.5197273000085,342.44072179999785,342.44072179999785,342.5445799000154,,,347.5750350000162,comma,0,5.129258700006176,None,,,,,,,,,,,,,,,,,,,,,,,,,,,,,,,,,,,,,,,,,,,,,,,,,,,,,,,,006,001,2024-05-31_15h27.47.805,ps,2023.2.3,29.91209731973016,2024-05-31 15h28.00.914476 -0400,
mini_blocks/3dp_single_mini_block_1.xlsx,"*Break*
Entering the 3D SIMULTANEOUS block
Rotation is Counter/Clockwise
Press <4> to continue",0,1,0,3D,p,0,True,False,None,sm1,300,None,output_pairs/3Dp_0m/3Dp_0m_sm_1_300deg.png,None,1702,period,0,1,1,1,0,5,5,5,,,,,,,,,,,,,351.62845210000523,,,,,,,,,,,,,,,,,,,,,,,,,,,,,,,,,,,,,,,,,,,,,,,,,,,356.6789330000174,356.71138650001376,356.71138650001376,358.70891129999654,1.0,['comma'],[1.4422303999890573],[None],358.7090845000057,358.740383700002,360.7119789000135,,,,,,,,,,,,,,,351.57890700001735,351.62845210000523,352.58474330001627,352.58474330001627,352.65042930000345,,,356.67873630000395,period,1,4.080890800018096,None,,,,,,,,,,,,,,,,,,,,,,,,,,,,,,,,,,,,,,,,,,,,,,,,,,,,,,,,006,001,2024-05-31_15h27.47.805,ps,2023.2.3,29.91209731973016,2024-05-31 15h28.00.914476 -0400,
mini_blocks/3dp_single_mini_block_1.xlsx,"*Break*
Entering the 3D SIMULTANEOUS block
Rotation is Counter/Clockwise
Press <4> to continue",0,1,0,3D,p,180,False,False,None,sm5,240,60,output_pairs/3Dp_180/3Dp_180_sm_5_240_to_60deg.png,None,766,comma,0,1,1,1,0,6,6,6,,,,,,,,,,,,,360.76080010001897,,,,,,,,,,,,,,,,,,,,,,,,,,,,,,,,,,,,,,,,,,,,,,,,,,,367.15141250001034,367.1833975999907,367.1833975999907,369.17614200001117,2.0,['period'],[1.3065062999958172],[None],369.17630220000865,369.2074062000029,371.1786684000108,,,,,,,,,,,,,,,360.71215239999583,360.76080010001897,361.68443600001046,361.68443600001046,361.7835319000005,,,367.1512037999928,period,0,5.446214900002815,None,,,,,,,,,,,,,,,,,,,,,,,,,,,,,,,,,,,,,,,,,,,,,,,,,,,,,,,,006,001,2024-05-31_15h27.47.805,ps,2023.2.3,29.91209731973016,2024-05-31 15h28.00.914476 -0400,
mini_blocks/3dp_single_mini_block_1.xlsx,"*Break*
Entering the 3D SIMULTANEOUS block
Rotation is Counter/Clockwise
Press <4> to continue",0,1,0,3D,p,0,True,False,None,obj1,280,None,output_pairs/3Dp_0m/3Dp_0m_obj_12_280deg.png,None,1716,period,0,1,1,1,0,7,7,7,,,,,,,,,,,,,371.23125100001926,,,,,,,,,,,,,,,,,,,,,,,,,,,,,,,,,,,,,,,,,,,,,,,,,,,378.2790781999938,378.31159230001504,378.31159230001504,380.309367400012,3.0,['slash'],[1.6431565000093542],[None],380.3095358000137,380.3406643999915,382.31210219999775,,,,,,,,,,,,,,,371.1788642000174,371.23125100001926,372.1742273000127,372.1742273000127,372.24479399999836,,,378.27887629999896,period,1,6.075849399989238,None,,,,,,,,,,,,,,,,,,,,,,,,,,,,,,,,,,,,,,,,,,,,,,,,,,,,,,,,006,001,2024-05-31_15h27.47.805,ps,2023.2.3,29.91209731973016,2024-05-31 15h28.00.914476 -0400,
mini_blocks/3dp_single_mini_block_1.xlsx,"*Break*
Entering the 3D SIMULTANEOUS block
Rotation is Counter/Clockwise
Press <4> to continue",0,1,0,3D,p,120,True,False,None,obj2,80,200,output_pairs/3Dp_120m/3Dp_120m_obj_2_80_to_200deg.png,None,2123,period,0,1,1,1,0,8,8,8,,,,,,,,,,,,,382.35731359999045,,,,,,,,,,,,,,,,,,,,,,,,,,,,,,,,,,,,,,,,,,,,,,,,,,,386.00854919999256,386.0406568000035,386.0406568000035,388.01391390000936,1.0,['comma'],[0.5045346000115387],[None],388.0140833000187,388.04531320001115,390.0181906000071,,,,,,,,,,,,,,,382.3122782999999,382.35731359999045,383.27883670001756,383.27883670001756,383.38353029999416,,,386.0083338000113,period,1,2.7154464999912307,None,,,,,,,,,,,,,,,,,,,,,,,,,,,,,,,,,,,,,,,,,,,,,,,,,,,,,,,,006,001,2024-05-31_15h27.47.805,ps,2023.2.3,29.91209731973016,2024-05-31 15h28.00.914476 -0400,
mini_blocks/3dp_single_mini_block_1.xlsx,"*Break*
Entering the 3D SIMULTANEOUS block
Rotation is Counter/Clockwise
Press <4> to continue",0,1,0,3D,p,180,False,False,None,obj1,40,220,output_pairs/3Dp_180/3Dp_180_obj_1_40_to_220deg.png,None,748,comma,0,1,1,1,0,9,9,9,,,,,,,,,,,,,390.061151300004,,,,,,,,,,,,,,,,,,,,,,,,,,,,,,,,,,,,,,,,,,,,,,,,,,,398.3083382000041,398.34071220000624,398.34071220000624,400.31151230001706,3.0,['slash'],[0.8608984999882523],[None],400.3116842000163,400.3453281999973,402.34114400000544,400.3453281999973,400.3453281999973,,,,,,,,,,,,,390.0184405000182,390.061151300004,391.0075962000119,391.0075962000119,391.07425150001654,,,398.30812430000515,comma,1,7.28202329998021,None,,,,,,,,,,,,,,,,,,,,,,,,,,,,,,,,,,,,,,,,,,,,,,,,,,,,,,,,006,001,2024-05-31_15h27.47.805,ps,2023.2.3,29.91209731973016,2024-05-31 15h28.00.914476 -0400,
mini_blocks/3dp_single_mini_block_1.xlsx,"*Break*
Entering the 3D SIMULTANEOUS block
Rotation is Counter/Clockwise
Press <4> to continue",0,1,0,3D,p,60,True,False,None,obj1,140,200,output_pairs/3Dp_60m/3Dp_60m_obj_10_140_to_200deg.png,None,859,period,0,1,1,1,0,10,10,10,,,,,,,,,,,,,402.3786564000184,,,,,,,,,,,,,,,,,,,,,,,,,,,,,,,,,,,,,,,,,,,,,,,,,,,408.64595199999167,408.68416380000417,408.68416380000417,410.67589680000674,3.0,['slash'],[0.8135191999899689],[None],410.6760532000044,410.7075010999979,412.6789228999987,,,,,,,,,,,,,,,402.3414369999955,402.3786564000184,403.3077007000102,403.3077007000102,403.37833609999507,,,408.6457345999952,comma,0,5.326281199988443,None,,,,,,,,,,,,,,,,,,,,,,,,,,,,,,,,,,,,,,,,,,,,,,,,,,,,,,,,006,001,2024-05-31_15h27.47.805,ps,2023.2.3,29.91209731973016,2024-05-31 15h28.00.914476 -0400,
mini_blocks/3dp_single_mini_block_1.xlsx,"*Break*
Entering the 3D SIMULTANEOUS block
Rotation is Counter/Clockwise
Press <4> to continue",0,1,0,3D,p,0,False,False,None,obj4,80,None,output_pairs/3Dp_0/3Dp_0_obj_4_80deg.png,None,2168,comma,0,1,1,1,0,11,11,11,,,,,,,,,,,,,412.71573050000006,,,,,,,,,,,,,,,,,,,,,,,,,,,,,,,,,,,,,,,,,,,,,,,,,,,416.30877080000937,416.341072900017,416.341072900017,418.31130709999707,4.0,['rshift'],[0.7485750000050757],[None],418.31146029999945,418.34066250000615,420.31234649999533,418.34066250000615,418.34066250000615,,,,,,,,,,,,,412.6791119000118,412.71573050000006,413.6512752000126,413.6512752000126,413.7076889000018,,,416.30855819999124,comma,1,2.63882900000317,None,,,,,,,,,,,,,,,,,,,,,,,,,,,,,,,,,,,,,,,,,,,,,,,,,,,,,,,,006,001,2024-05-31_15h27.47.805,ps,2023.2.3,29.91209731973016,2024-05-31 15h28.00.914476 -0400,
mini_blocks/3dp_single_mini_block_1.xlsx,"*Break*
Entering the 3D SIMULTANEOUS block
Rotation is Counter/Clockwise
Press <4> to continue",0,1,0,3D,p,60,True,False,None,obj1,140,200,output_pairs/3Dp_60m/3Dp_60m_obj_10_140_to_200deg.png,None,859,period,0,1,1,1,0,12,12,12,,,,,,,,,,,,,420.3497883999953,,,,,,,,,,,,,,,,,,,,,,,,,,,,,,,,,,,,,,,,,,,,,,,,,,,423.675296100002,423.7076181000157,423.7076181000157,425.6805064000073,3.0,['slash'],[0.7664569000189658],[None],425.6806564000144,425.70779929999844,427.67904620000627,,,,,,,,,,,,,,,420.31255500001134,420.3497883999953,421.3122270000167,421.3122270000167,421.3843017000181,,,423.67507920000935,comma,0,2.3292882000096142,None,,,,,,,,,,,,,,,,,,,,,,,,,,,,,,,,,,,,,,,,,,,,,,,,,,,,,,,,006,001,2024-05-31_15h27.47.805,ps,2023.2.3,29.91209731973016,2024-05-31 15h28.00.914476 -0400,
mini_blocks/3dp_single_mini_block_1.xlsx,"*Break*
Entering the 3D SIMULTANEOUS block
Rotation is Counter/Clockwise
Press <4> to continue",0,1,0,3D,p,0,False,False,None,obj1,280,None,output_pairs/3Dp_0/3Dp_0_obj_14_280deg.png,None,2145,comma,0,1,1,1,0,13,13,13,,,,,,,,,,,,,427.7242251000134,,,,,,,,,,,,,,,,,,,,,,,,,,,,,,,,,,,,,,,,,,,,,,,,,,,430.9458289000031,430.9782822999987,430.9782822999987,432.9760221000179,4.0,['rshift'],[0.8077932000160217],[None],432.97619370001485,433.00742380000884,434.9790853000013,,,,,,,,,,,,,,,427.6792376000085,427.7242251000134,428.68471750000026,428.68471750000026,428.75051030001487,,,430.9456136999943,comma,1,2.253846200008411,None,,,,,,,,,,,,,,,,,,,,,,,,,,,,,,,,,,,,,,,,,,,,,,,,,,,,,,,,006,001,2024-05-31_15h27.47.805,ps,2023.2.3,29.91209731973016,2024-05-31 15h28.00.914476 -0400,
mini_blocks/3dp_single_mini_block_1.xlsx,"*Break*
Entering the 3D SIMULTANEOUS block
Rotation is Counter/Clockwise
Press <4> to continue",0,1,0,3D,p,60,True,False,None,obj1,200,260,output_pairs/3Dp_60m/3Dp_60m_obj_15_200_to_260deg.png,None,846,period,0,1,1,1,0,14,14,14,,,,,,,,,,,,,435.01848279999103,,,,,,,,,,,,,,,,,,,,,,,,,,,,,,,,,,,,,,,,,,,,,,,,,,,441.3420915000024,441.3741733999923,441.3741733999923,443.3445907999994,2.0,['period'],[1.235201799980132],[None],443.3447451000102,443.3742018000048,445.34578599999077,443.3742018000048,443.3742018000048,,,,,,,,,,,,,434.97927619999973,435.01848279999103,435.951595999999,435.951595999999,436.04092679999303,,,441.3418803999957,period,1,5.3788526999996975,None,,,,,,,,,,,,,,,,,,,,,,,,,,,,,,,,,,,,,,,,,,,,,,,,,,,,,,,,006,001,2024-05-31_15h27.47.805,ps,2023.2.3,29.91209731973016,2024-05-31 15h28.00.914476 -0400,
mini_blocks/3dp_single_mini_block_1.xlsx,"*Break*
Entering the 3D SIMULTANEOUS block
Rotation is Counter/Clockwise
Press <4> to continue",0,1,0,3D,p,0,True,False,None,obj4,80,None,output_pairs/3Dp_0m/3Dp_0m_obj_4_80deg.png,None,1727,period,0,1,1,1,0,15,15,15,,,,,,,,,,,,,445.39208429999417,,,,,,,,,,,,,,,,,,,,,,,,,,,,,,,,,,,,,,,,,,,,,,,,,,,454.41255609999644,454.44122500001686,454.44122500001686,456.4158299000119,3.0,['slash'],[1.1128412999969441],[None],456.4159761000192,456.44132129999343,458.4084775999945,456.44132129999343,456.44132129999343,458.4412769000046,,,,,,,,,,,,445.3460208000033,445.39208429999417,446.3516692999983,446.3516692999983,446.4175504000159,,,454.4123513000086,period,1,8.043180999986362,None,,,,,,,,,,,,,,,,,,,,,,,,,,,,,,,,,,,,,,,,,,,,,,,,,,,,,,,,006,001,2024-05-31_15h27.47.805,ps,2023.2.3,29.91209731973016,2024-05-31 15h28.00.914476 -0400,
mini_blocks/3dp_single_mini_block_1.xlsx,"*Break*
Entering the 3D SIMULTANEOUS block
Rotation is Counter/Clockwise
Press <4> to continue",0,1,0,,,,,,,,,,,,,,0,1,1,1,,,,,,,,,,,,,,,,,,,,,,,,,,,,,,,,,,,,,,,,,,,,,,,,,,,,,,,,,,,,,,,,,,,,,,,,,,,,,,,,,,458.41795460000867,458.4412769000046,458.4412769000046,466.4114483000012,4.0,['rshift'],[3.176974300004076],[None],466.41160710001714,466.4116289000085,None,,,,,,,,,,,,,466.44085680000717,466.44085680000717,,,,,,,,,,,,,,,,,,,,,,,,,,,,,,,,,,,,,,,,,,,,,,,,,,,,,,006,001,2024-05-31_15h27.47.805,ps,2023.2.3,29.91209731973016,2024-05-31 15h28.00.914476 -0400,
mini_blocks/2d_wm_mini_block_2.xlsx,"*Break*
Entering the 2D WORKING MEMORY block
Rotation is Counter/Clockwise
Press <4> to continue
               ",1,0,0,2D,None,120,True,True,5,obj8,300,60,output_pairs/2D_120_M_WM/2D_120_M_WM_05_1_obj_8_300deg.png,output_pairs/2D_120_M_WM/2D_120_M_WM_05_2_obj_8_60deg.png,242,period,0,2,2,2,,,,,0,0,0,0,,,,,,,,,474.11215620001894,,,,,,,,,,,,,,,,,,,,,,,,,,,,,,466.41174630000023,466.44085680000717,466.44085680000717,474.0421898000059,rshift,7.568186899996363,None,474.05451330001233,474.11215620001894,475.04138680000324,475.1182578000007,479.04558880001423,479.04558880001423,480.0416081000003,480.0416081000003,480.0416081000003,484.0463783000014,period,1,3.9843537000124343,None,484.04668580001453,484.0790377999947,484.0790377999947,486.07629050000105,1.0,['comma'],[1.1386173000209965],[None],486.0765573999961,486.1077266999928,488.07925400001113,,,,,,,,,,,,,,,,,,,,,,,,,,,,,,,,,,,,,,,,,,,,,,,,,,,,,,,,,,,,,,,,,,,,,,,,,,,,,,,,,,006,001,2024-05-31_15h27.47.805,ps,2023.2.3,29.91209731973016,2024-05-31 15h28.00.914476 -0400,
mini_blocks/2d_wm_mini_block_2.xlsx,"*Break*
Entering the 2D WORKING MEMORY block
Rotation is Counter/Clockwise
Press <4> to continue
               ",1,0,0,2D,None,120,False,True,23,obj2,0,120,output_pairs/2D_120_WM/2D_120_WM_23_1_obj_2_0deg.png,output_pairs/2D_120_WM/2D_120_WM_23_2_obj_2_120deg.png,163,comma,0,2,2,2,,,,,0,1,1,1,,,,,,,,,488.12988640001277,,,,,,,,,,,,,,,,,,,,,,,,,,,,,,,,,,,,,488.07946579999407,488.12988640001277,489.0518890999956,489.15170640000724,493.0458478000073,493.0791270000045,494.0517261000059,494.0517261000059,494.0517261000059,497.8131368000177,comma,1,3.7501978000218514,None,497.81332879999536,497.8457730000082,497.8457730000082,499.81598290000693,3.0,['slash'],[1.3725440000125673],[None],499.81613130000187,499.84582429999136,501.8415051000193,499.84582429999136,499.84582429999136,,,,,,,,,,,,,,,,,,,,,,,,,,,,,,,,,,,,,,,,,,,,,,,,,,,,,,,,,,,,,,,,,,,,,,,,,,,,,,,,006,001,2024-05-31_15h27.47.805,ps,2023.2.3,29.91209731973016,2024-05-31 15h28.00.914476 -0400,
mini_blocks/2d_wm_mini_block_2.xlsx,"*Break*
Entering the 2D WORKING MEMORY block
Rotation is Counter/Clockwise
Press <4> to continue
               ",1,0,0,2D,None,0,True,True,32,obj1,240,240,output_pairs/2D_0_M_WM/2D_0_M_WM_32_1_obj_1_240deg.png,output_pairs/2D_0_M_WM/2D_0_M_WM_32_2_obj_1_240deg.png,675,period,0,2,2,2,,,,,0,2,2,2,,,,,,,,,501.8926055000047,,,,,,,,,,,,,,,,,,,,,,,,,,,,,,,,,,,,,501.84172530000797,501.8926055000047,502.8519200000155,502.9186696000106,506.81251129999873,506.8791261000151,507.81844329999876,507.81844329999876,507.81844329999876,515.5418803000066,period,1,7.718801199982408,None,515.5420941000048,515.5744479999994,515.5744479999994,517.5451886999945,2.0,['period'],[1.2672885000065435],[None],517.5453766999999,517.5746950000175,519.5519272999954,517.5746950000175,517.5746950000175,,,,,,,,,,,,,,,,,,,,,,,,,,,,,,,,,,,,,,,,,,,,,,,,,,,,,,,,,,,,,,,,,,,,,,,,,,,,,,,,006,001,2024-05-31_15h27.47.805,ps,2023.2.3,29.91209731973016,2024-05-31 15h28.00.914476 -0400,
mini_blocks/2d_wm_mini_block_2.xlsx,"*Break*
Entering the 2D WORKING MEMORY block
Rotation is Counter/Clockwise
Press <4> to continue
               ",1,0,0,2D,None,180,True,True,8,sm2,120,300,output_pairs/2D_180_M_WM/2D_180_M_WM_08_1_SM2_120deg.png,output_pairs/2D_180_M_WM/2D_180_M_WM_08_2_SM2_300deg.png,435,period,0,2,2,2,,,,,0,3,3,3,,,,,,,,,519.6065870000166,,,,,,,,,,,,,,,,,,,,,,,,,,,,,,,,,,,,,519.5521059000166,519.6065870000166,520.5416378999944,520.6081499000138,524.5412078000081,524.5412078000081,525.5459420999978,525.5459420999978,525.5459420999978,529.0755582000129,comma,0,3.5040975000010803,None,529.0757731999911,529.1079921000055,529.1079921000055,531.0809328000178,3.0,['slash'],[1.3016327999939676],[None],531.0811146000051,531.1126007999992,533.1083103000128,,,,,,,,,,,,,,,,,,,,,,,,,,,,,,,,,,,,,,,,,,,,,,,,,,,,,,,,,,,,,,,,,,,,,,,,,,,,,,,,,,006,001,2024-05-31_15h27.47.805,ps,2023.2.3,29.91209731973016,2024-05-31 15h28.00.914476 -0400,
mini_blocks/2d_wm_mini_block_2.xlsx,"*Break*
Entering the 2D WORKING MEMORY block
Rotation is Counter/Clockwise
Press <4> to continue
               ",1,0,0,2D,None,60,True,True,16,obj2,280,340,output_pairs/2D_60_M_WM/2D_60_M_WM_16_1_obj_2_280deg.png,output_pairs/2D_60_M_WM/2D_60_M_WM_16_2_obj_2_340deg.png,609,period,0,2,2,2,,,,,0,4,4,4,,,,,,,,,533.1561570000194,,,,,,,,,,,,,,,,,,,,,,,,,,,,,,,,,,,,,533.1085347000044,533.1561570000194,534.0853255999973,534.1851464000065,538.1078842999996,538.1078842999996,539.1081235000165,539.1081235000165,539.1081235000165,544.6424619000172,comma,0,5.52622720002546,None,544.6426714000117,544.6747322000156,544.6747322000156,546.6476669000112,3.0,['slash'],[1.0866391999879852],[None],546.6478229000058,546.674974900001,548.642173100001,,,548.7007645000122,,,,,,,,,,,,,,,,,,,,,,,,,,,,,,,,,,,,,,,,,,,,,,,,,,,,,,,,,,,,,,,,,,,,,,,,,,,,,,,006,001,2024-05-31_15h27.47.805,ps,2023.2.3,29.91209731973016,2024-05-31 15h28.00.914476 -0400,
mini_blocks/2d_wm_mini_block_2.xlsx,"*Break*
Entering the 2D WORKING MEMORY block
Rotation is Counter/Clockwise
Press <4> to continue
               ",1,0,0,2D,None,60,False,True,4,obj1,60,0,output_pairs/2D_60_WM/2D_60_WM_04_1_obj_11_60deg.png,output_pairs/2D_60_WM/2D_60_WM_04_2_obj_11_0deg.png,144,comma,0,2,2,2,,,,,0,5,5,5,,,,,,,,,548.7007645000122,,,,,,,,,,,,,,,,,,,,,,,,,,,,,,,,,,,,,548.6423546000151,548.7007645000122,549.6518570999906,549.718537800014,553.6459639999957,553.679231999995,554.646031900018,554.646031900018,554.646031900018,560.480035799992,comma,1,5.819407000002684,None,560.4802688999916,560.5127056000056,560.5127056000056,562.5100586999906,3.0,['slash'],[0.8254941999912262],[None],562.5102167000005,562.5414336000104,564.5129155000031,,,,,,,,,,,,,,,,,,,,,,,,,,,,,,,,,,,,,,,,,,,,,,,,,,,,,,,,,,,,,,,,,,,,,,,,,,,,,,,,,,006,001,2024-05-31_15h27.47.805,ps,2023.2.3,29.91209731973016,2024-05-31 15h28.00.914476 -0400,
mini_blocks/2d_wm_mini_block_2.xlsx,"*Break*
Entering the 2D WORKING MEMORY block
Rotation is Counter/Clockwise
Press <4> to continue
               ",1,0,0,2D,None,180,False,True,12,obj1,240,60,output_pairs/2D_180_WM/2D_180_WM_12_1_obj_15_240deg.png,output_pairs/2D_180_WM/2D_180_WM_12_2_obj_15_60deg.png,708,comma,0,2,2,2,,,,,0,6,6,6,,,,,,,,,564.5603910000063,,,,,,,,,,,,,,,,,,,,,,,,,,,,,,,,,,,,,564.5131139000005,564.5603910000063,565.485557100008,565.5851572999964,569.4793715999986,569.5126730999909,570.5083670000022,570.5083670000022,570.5083670000022,574.942580700008,period,0,4.429718100000173,None,574.9427896999987,574.9748476000095,574.9748476000095,576.945552899997,1.0,['comma'],[1.0501408999843989],[None],576.9457015999942,576.9794489000051,578.9751908000035,576.9794489000051,576.9794489000051,,,,,,,,,,,,,,,,,,,,,,,,,,,,,,,,,,,,,,,,,,,,,,,,,,,,,,,,,,,,,,,,,,,,,,,,,,,,,,,,006,001,2024-05-31_15h27.47.805,ps,2023.2.3,29.91209731973016,2024-05-31 15h28.00.914476 -0400,
mini_blocks/2d_wm_mini_block_2.xlsx,"*Break*
Entering the 2D WORKING MEMORY block
Rotation is Counter/Clockwise
Press <4> to continue
               ",1,0,0,2D,None,180,True,True,4,obj5,80,260,output_pairs/2D_180_M_WM/2D_180_M_WM_04_1_obj_5_80deg.png,output_pairs/2D_180_M_WM/2D_180_M_WM_04_2_obj_5_260deg.png,430,period,0,2,2,2,,,,,0,7,7,7,,,,,,,,,579.0323128000018,,,,,,,,,,,,,,,,,,,,,,,,,,,,,,,,,,,,,578.9755145999952,579.0323128000018,579.9751369000005,580.0418763000052,583.9748709000123,583.9748709000123,584.9794774000184,584.9462075000047,584.9462075000047,587.3757001000049,period,1,2.424089300009655,None,587.3759174000006,587.4080772000016,587.4080772000016,589.3789626999933,1.0,['comma'],[0.8824460000032559],[None],589.3791181000124,589.408294599998,591.3856439999945,589.408294599998,589.408294599998,,,,,,,,,,,,,,,,,,,,,,,,,,,,,,,,,,,,,,,,,,,,,,,,,,,,,,,,,,,,,,,,,,,,,,,,,,,,,,,,006,001,2024-05-31_15h27.47.805,ps,2023.2.3,29.91209731973016,2024-05-31 15h28.00.914476 -0400,
mini_blocks/2d_wm_mini_block_2.xlsx,"*Break*
Entering the 2D WORKING MEMORY block
Rotation is Counter/Clockwise
Press <4> to continue
               ",1,0,0,2D,None,0,False,True,26,obj4,180,180,output_pairs/2D_0_WM/2D_0_WM_26_1_obj_4_180deg.png,output_pairs/2D_0_WM/2D_0_WM_26_2_obj_4_180deg.png,208,comma,0,2,2,2,,,,,0,8,8,8,,,,,,,,,591.4416309999942,,,,,,,,,,,,,,,,,,,,,,,,,,,,,,,,,,,,,591.3858230000187,591.4416309999942,592.3752365999972,592.4418253000185,596.3794304000039,596.3794304000039,597.4129160000011,597.3795356000192,597.3795356000192,598.8423909000121,comma,1,1.4382860000187065,None,598.8426035000011,598.8749302999931,598.8749302999931,600.8456628000131,4.0,['rshift'],[1.1749510999943595],[None],600.8458314000163,600.8750891000091,602.8426288999908,600.8750891000091,600.8750891000091,602.8984479999926,,,,,,,,,,,,,,,,,,,,,,,,,,,,,,,,,,,,,,,,,,,,,,,,,,,,,,,,,,,,,,,,,,,,,,,,,,,,,,,006,001,2024-05-31_15h27.47.805,ps,2023.2.3,29.91209731973016,2024-05-31 15h28.00.914476 -0400,
mini_blocks/2d_wm_mini_block_2.xlsx,"*Break*
Entering the 2D WORKING MEMORY block
Rotation is Counter/Clockwise
Press <4> to continue
               ",1,0,0,2D,None,60,False,True,6,obj1,80,140,output_pairs/2D_60_WM/2D_60_WM_06_1_obj_15_80deg.png,output_pairs/2D_60_WM/2D_60_WM_06_2_obj_15_140deg.png,137,comma,0,2,2,2,,,,,0,9,9,9,,,,,,,,,602.8984479999926,,,,,,,,,,,,,,,,,,,,,,,,,,,,,,,,,,,,,602.842813700001,602.8984479999926,603.8520571000117,603.9086645999923,607.8749258000171,607.8749258000171,608.8750352000061,608.8416351999913,608.8416351999913,611.7425692999968,period,0,2.888785699993605,None,611.7427798999997,611.7748109000095,611.7748109000095,613.7456257000158,1.0,['comma'],[0.7716600999992806],[None],613.7457828999904,613.7796231000102,615.7463659000059,613.7796231000102,613.7796231000102,,,,,,,,,,,,,,,,,,,,,,,,,,,,,,,,,,,,,,,,,,,,,,,,,,,,,,,,,,,,,,,,,,,,,,,,,,,,,,,,006,001,2024-05-31_15h27.47.805,ps,2023.2.3,29.91209731973016,2024-05-31 15h28.00.914476 -0400,
mini_blocks/2d_wm_mini_block_2.xlsx,"*Break*
Entering the 2D WORKING MEMORY block
Rotation is Counter/Clockwise
Press <4> to continue
               ",1,0,0,2D,None,60,True,True,23,obj4,80,20,output_pairs/2D_60_M_WM/2D_60_M_WM_23_1_obj_4_80deg.png,output_pairs/2D_60_M_WM/2D_60_M_WM_23_2_obj_4_20deg.png,623,period,0,2,2,2,,,,,0,10,10,10,,,,,,,,,615.8025393999997,,,,,,,,,,,,,,,,,,,,,,,,,,,,,,,,,,,,,615.7465479999955,615.8025393999997,616.7462259000167,616.8129118999932,620.7463361000118,620.7796152000083,621.746351800015,621.746351800015,621.746351800015,624.7756576999964,comma,0,3.0159379999968223,None,624.775846900011,624.8084448000009,624.8084448000009,626.7814964000136,None,None,,,626.7815867000027,626.8129696999968,628.7796770000132,,,,,,,,,,,,,,,,,,,,,,,,,,,,,,,,,,,,,,,,,,,,,,,,,,,,,,,,,,,,,,,,,,,,,,,,,,,,,,,,,,006,001,2024-05-31_15h27.47.805,ps,2023.2.3,29.91209731973016,2024-05-31 15h28.00.914476 -0400,
mini_blocks/2d_wm_mini_block_2.xlsx,"*Break*
Entering the 2D WORKING MEMORY block
Rotation is Counter/Clockwise
Press <4> to continue
               ",1,0,0,2D,None,180,False,True,6,obj1,140,320,output_pairs/2D_180_WM/2D_180_WM_06_1_obj_10_140deg.png,output_pairs/2D_180_WM/2D_180_WM_06_2_obj_10_320deg.png,733,comma,0,2,2,2,,,,,0,11,11,11,,,,,,,,,628.8352730000042,,,,,,,,,,,,,,,,,,,,,,,,,,,,,,,,,,,,,628.779861499992,628.8352730000042,629.7752747999912,629.8421115000092,633.7753389000136,633.7753389000136,634.7797385000158,634.7797385000158,634.7797385000158,638.3763028999965,comma,1,3.5752641999861225,None,638.3764925000141,638.4087927000073,638.4087927000073,640.3813607000047,2.0,['period'],[1.4891791999980342],[None],640.38151810001,640.4087737000082,642.3759424000164,,,642.4347444000014,,,,,,,,,,,,,,,,,,,,,,,,,,,,,,,,,,,,,,,,,,,,,,,,,,,,,,,,,,,,,,,,,,,,,,,,,,,,,,,006,001,2024-05-31_15h27.47.805,ps,2023.2.3,29.91209731973016,2024-05-31 15h28.00.914476 -0400,
mini_blocks/2d_wm_mini_block_2.xlsx,"*Break*
Entering the 2D WORKING MEMORY block
Rotation is Counter/Clockwise
Press <4> to continue
               ",1,0,0,2D,None,120,False,True,16,obj3,0,240,output_pairs/2D_120_WM/2D_120_WM_16_1_obj_3_0deg.png,output_pairs/2D_120_WM/2D_120_WM_16_2_obj_3_240deg.png,165,comma,0,2,2,2,,,,,0,12,12,12,,,,,,,,,642.4347444000014,,,,,,,,,,,,,,,,,,,,,,,,,,,,,,,,,,,,,642.3761235999991,642.4347444000014,643.4086751000141,643.4463038000104,647.4085719000141,647.4085719000141,648.4131372999982,648.3797606000153,648.3797606000153,652.9471020000055,period,0,4.53381810002611,None,652.9472877999942,652.9797285000095,652.9797285000095,654.9771894000005,1.0,['comma'],[1.286730699997861],[None],654.9773490999942,655.0085118999996,656.9752889999945,,,,,,,,,,,,,,,,,,,,,,,,,,,,,,,,,,,,,,,,,,,,,,,,,,,,,,,,,,,,,,,,,,,,,,,,,,,,,,,,,,006,001,2024-05-31_15h27.47.805,ps,2023.2.3,29.91209731973016,2024-05-31 15h28.00.914476 -0400,
mini_blocks/2d_wm_mini_block_2.xlsx,"*Break*
Entering the 2D WORKING MEMORY block
Rotation is Counter/Clockwise
Press <4> to continue
               ",1,0,0,2D,None,120,True,True,32,obj1,80,200,output_pairs/2D_120_M_WM/2D_120_M_WM_32_1_obj_11_80deg.png,output_pairs/2D_120_M_WM/2D_120_M_WM_32_2_obj_11_200deg.png,255,period,0,2,2,2,,,,,0,13,13,13,,,,,,,,,657.0325560999918,,,,,,,,,,,,,,,,,,,,,,,,,,,,,,,,,,,,,656.9756398000172,657.0325560999918,657.9465735999984,658.0527882000024,661.9754689999972,661.9754689999972,662.9799714999972,662.9466291000135,662.9466291000135,666.8095671999909,comma,0,3.854556500009494,None,666.8097846000164,666.8417841000191,666.8417841000191,668.8149408000172,2.0,['period'],[1.223482100002002],[None],668.8150995000033,668.8465650000144,670.8190028000099,,,,,,,,,,,,,,,,,,,,,,,,,,,,,,,,,,,,,,,,,,,,,,,,,,,,,,,,,,,,,,,,,,,,,,,,,,,,,,,,,,006,001,2024-05-31_15h27.47.805,ps,2023.2.3,29.91209731973016,2024-05-31 15h28.00.914476 -0400,
mini_blocks/2d_wm_mini_block_2.xlsx,"*Break*
Entering the 2D WORKING MEMORY block
Rotation is Counter/Clockwise
Press <4> to continue
               ",1,0,0,2D,None,0,False,True,6,obj1,240,240,output_pairs/2D_0_WM/2D_0_WM_06_1_obj_1_240deg.png,output_pairs/2D_0_WM/2D_0_WM_06_2_obj_1_240deg.png,222,comma,0,2,2,2,,,,,0,14,14,14,,,,,,,,,670.8738755999948,,,,,,,,,,,,,,,,,,,,,,,,,,,,,,,,,,,,,670.8192067999917,670.8738755999948,671.8088557000156,671.8754374000127,675.8419414999953,675.8084342000075,676.8420194000064,676.8420194000064,676.8420194000064,677.9143207000161,comma,1,1.0714922999904957,None,677.9145583999925,677.9465985000134,677.9465985000134,679.9437569000002,4.0,['rshift'],[1.0236768000177108],[None],679.9439390000189,679.9751680000045,681.9419425000087,,,,,,,,,,,,,,,,,,,,,,,,,,,,,,,,,,,,,,,,,,,,,,,,,,,,,,,,,,,,,,,,,,,,,,,,,,,,,,,,,,006,001,2024-05-31_15h27.47.805,ps,2023.2.3,29.91209731973016,2024-05-31 15h28.00.914476 -0400,
mini_blocks/2d_wm_mini_block_2.xlsx,"*Break*
Entering the 2D WORKING MEMORY block
Rotation is Counter/Clockwise
Press <4> to continue
               ",1,0,0,2D,None,0,True,True,27,obj7,300,300,output_pairs/2D_0_M_WM/2D_0_M_WM_27_1_obj_7_300deg.png,output_pairs/2D_0_M_WM/2D_0_M_WM_27_2_obj_7_300deg.png,685,period,0,2,2,2,,,,,0,15,15,15,,,,,,,,,681.9902923000045,,,,,,,,,,,,,,,,,,,,,,,,,,,,,,,,,,,,,681.9421503999911,681.9902923000045,682.9467146999959,683.0133742000035,686.9419912000012,686.9753121999966,687.942074999999,687.942074999999,687.942074999999,692.2760419000115,period,1,4.307042000000365,None,692.2762565000157,692.308365600009,692.308365600009,694.2792195999937,3.0,['slash'],[1.0784379000251647],[None],694.2793742000067,694.3087650999951,696.2861498999991,694.3087650999951,694.3087650999951,,,,,,,,,,,,,,,,,,,,,,,,,,,,,,,,,,,,,,,,,,,,,,,,,,,,,,,,,,,,,,,,,,,,,,,,,,,,,,,,006,001,2024-05-31_15h27.47.805,ps,2023.2.3,29.91209731973016,2024-05-31 15h28.00.914476 -0400,
mini_blocks/2d_wm_mini_block_2.xlsx,"*Break*
Entering the 2D WORKING MEMORY block
Rotation is Counter/Clockwise
Press <4> to continue
               ",1,0,0,,,,,,,,,,,,,,0,2,2,2,,,,,,,,,,,,,,,,,,,,,,,,,,,,,,,,,,,,,,,,,,,,,,,,,,,,,,,,,,,,,,,,,,,,,,,,,,,,,,,,,,696.2862110999995,696.3193644999992,696.3193644999992,704.3106559000153,4.0,['rshift'],[1.5784079000004567],[None],704.3108678999997,704.3108928000147,None,,,,,,,,,,,,,,,,,,,,,,,,,,,,,,,,,,,,,,,,,,,,,,,,,,,,,,,,,,,,,,,,,,,,006,001,2024-05-31_15h27.47.805,ps,2023.2.3,29.91209731973016,2024-05-31 15h28.00.914476 -0400,
mini_blocks/3dp_wm_mini_block_0.xlsx,"*Break*
Entering the 3D WORKING MEMORY block
Rotation is Counter/Clockwise
Press <4> to continue",1,0,1,3D,p,120,False,True,7,obj7,300,60,output_pairs/3Dp_120_WM/3Dp_120_WM_07_1_obj_7_300deg.png,output_pairs/3Dp_120_WM/3Dp_120_WM_07_2_obj_7_60deg.png,350,comma,0,3,3,3,,,,,0,0,0,0,,,,,,,,,708.9923668999982,,,,,,,,,,,,,,,,,,,,,,,,,,,,,,704.3110211000021,704.3418888000015,704.3418888000015,708.9139196000178,rshift,4.564468600001419,None,708.9270254000148,708.9923668999982,709.9192658000102,710.0090712000092,713.9421027000062,713.9421027000062,714.9467620000069,714.9133927999937,714.9133927999937,720.5141239000077,comma,1,5.576270999998087,None,720.5144184000092,720.5467092000181,720.5467092000181,722.5440547000035,2.0,['period'],[0.9749784999876283],[None],722.5443393000169,722.5752846999967,724.5422347999993,,,,,,,,,,,,,,,,,,,,,,,,,,,,,,,,,,,,,,,,,,,,,,,,,,,,,,,,,,,,,,,,,,,,,,,,,,,,,,,,,,006,001,2024-05-31_15h27.47.805,ps,2023.2.3,29.91209731973016,2024-05-31 15h28.00.914476 -0400,
mini_blocks/3dp_wm_mini_block_0.xlsx,"*Break*
Entering the 3D WORKING MEMORY block
Rotation is Counter/Clockwise
Press <4> to continue",1,0,1,3D,p,120,False,True,16,sm4,320,80,output_pairs/3Dp_120_WM/3Dp_120_WM_16_1_sm_4_320deg.png,output_pairs/3Dp_120_WM/3Dp_120_WM_16_2_sm_4_80deg.png,332,comma,0,3,3,3,,,,,0,1,1,1,,,,,,,,,724.6081965000194,,,,,,,,,,,,,,,,,,,,,,,,,,,,,,,,,,,,,724.5424736000132,724.6081965000194,725.5136065999977,725.6193925999978,729.5467441999936,729.5467441999936,730.5528200000117,730.5196668000135,730.5196668000135,733.3094611999986,period,0,2.778712400002405,None,733.3096611000074,733.3420607000007,733.3420607000007,735.3152320999943,1.0,['comma'],[0.7238171999924816],[None],735.3153902000049,735.3468028999923,737.342587799998,,,,,,,,,,,,,,,,,,,,,,,,,,,,,,,,,,,,,,,,,,,,,,,,,,,,,,,,,,,,,,,,,,,,,,,,,,,,,,,,,,006,001,2024-05-31_15h27.47.805,ps,2023.2.3,29.91209731973016,2024-05-31 15h28.00.914476 -0400,
mini_blocks/3dp_wm_mini_block_0.xlsx,"*Break*
Entering the 3D WORKING MEMORY block
Rotation is Counter/Clockwise
Press <4> to continue",1,0,1,3D,p,0,False,True,29,obj4,100,100,output_pairs/3Dp_0_WM/3Dp_0_WM_29_1_obj_4_100deg.png,output_pairs/3Dp_0_WM/3Dp_0_WM_29_2_obj_4_100deg.png,101,comma,0,3,3,3,,,,,0,2,2,2,,,,,,,,,737.3998264000111,,,,,,,,,,,,,,,,,,,,,,,,,,,,,,,,,,,,,737.3429059000046,737.3998264000111,738.3090867999999,738.4090876000118,742.3089615000063,742.3089615000063,743.3194648000062,743.3194648000062,743.3194648000062,744.4766318000038,comma,1,1.1547007000190206,None,744.4768441999913,744.5087279000145,744.5087279000145,746.4819994000136,4.0,['rshift'],[1.2055017999955453],[None],746.4821628000063,746.5134638000163,748.4863187000155,,,,,,,,,,,,,,,,,,,,,,,,,,,,,,,,,,,,,,,,,,,,,,,,,,,,,,,,,,,,,,,,,,,,,,,,,,,,,,,,,,006,001,2024-05-31_15h27.47.805,ps,2023.2.3,29.91209731973016,2024-05-31 15h28.00.914476 -0400,
mini_blocks/3dp_wm_mini_block_0.xlsx,"*Break*
Entering the 3D WORKING MEMORY block
Rotation is Counter/Clockwise
Press <4> to continue",1,0,1,3D,p,180,False,True,32,sm5,40,220,output_pairs/3Dp_180_WM/3Dp_60_WM_32_1_sm_5_40deg.png,output_pairs/3Dp_180_WM/3Dp_60_WM_32_2_sm_5_220deg.png,494,comma,0,3,3,3,,,,,0,3,3,3,,,,,,,,,748.5557404000137,,,,,,,,,,,,,,,,,,,,,,,,,,,,,,,,,,,,,748.4865078000003,748.5557404000137,749.475747199991,749.5758030000143,753.5087958000076,753.4754044000001,754.5090560000099,754.5090560000099,754.5090560000099,760.7476577000052,comma,1,6.236665000003995,None,760.7478838000097,760.7802031000028,760.7802031000028,762.7773845000193,2.0,['period'],[0.8459332999773324],[None],762.777545000019,762.8088325000135,764.7804832000111,,,,,,,,,,,,,,,,,,,,,,,,,,,,,,,,,,,,,,,,,,,,,,,,,,,,,,,,,,,,,,,,,,,,,,,,,,,,,,,,,,006,001,2024-05-31_15h27.47.805,ps,2023.2.3,29.91209731973016,2024-05-31 15h28.00.914476 -0400,
mini_blocks/3dp_wm_mini_block_0.xlsx,"*Break*
Entering the 3D WORKING MEMORY block
Rotation is Counter/Clockwise
Press <4> to continue",1,0,1,3D,p,60,False,True,22,obj1,220,160,output_pairs/3Dp_60_WM/3Dp_60_WM_22_1_obj_14_220deg.png,output_pairs/3Dp_60_WM/3Dp_60_WM_22_2_obj_14_160deg.png,407,comma,0,3,3,3,,,,,0,4,4,4,,,,,,,,,764.8375139000127,,,,,,,,,,,,,,,,,,,,,,,,,,,,,,,,,,,,,764.7807380000013,764.8375139000127,765.747010799998,765.8471263000101,769.7802591999935,769.7469321000099,770.7803524000046,770.7469521000166,770.7469521000166,772.9101021999959,comma,1,2.158945600007428,None,772.9103105000104,772.9424063000188,772.9424063000188,774.9153416999907,3.0,['slash'],[0.892191199993249],[None],774.9154926000047,774.9469199000159,776.9469097999972,,,,,,,,,,,,,,,,,,,,,,,,,,,,,,,,,,,,,,,,,,,,,,,,,,,,,,,,,,,,,,,,,,,,,,,,,,,,,,,,,,006,001,2024-05-31_15h27.47.805,ps,2023.2.3,29.91209731973016,2024-05-31 15h28.00.914476 -0400,
mini_blocks/3dp_wm_mini_block_0.xlsx,"*Break*
Entering the 3D WORKING MEMORY block
Rotation is Counter/Clockwise
Press <4> to continue",1,0,1,3D,p,0,True,True,24,obj1,120,120,output_pairs/3Dp_0_M_WM/3Dp_0_M_WM_24_1_obj_12_120deg.png,output_pairs/3Dp_0_M_WM/3Dp_0_M_WM_24_2_obj_12_120deg.png,537,period,0,3,3,3,,,,,0,5,5,5,,,,,,,,,776.9960727000143,,,,,,,,,,,,,,,,,,,,,,,,,,,,,,,,,,,,,776.9471150000172,776.9960727000143,777.9530259000021,778.0196567999956,781.9136630000139,781.9803085000021,782.942566999991,782.9092555000097,782.9092555000097,787.1433799999941,comma,0,4.205930600001011,None,787.1435880000063,787.1757804999943,787.1757804999943,789.1487840999907,2.0,['period'],[0.867174300015904],[None],789.1489350000047,789.1804267000116,791.1469906000129,,,,,,,,,,,,,,,,,,,,,,,,,,,,,,,,,,,,,,,,,,,,,,,,,,,,,,,,,,,,,,,,,,,,,,,,,,,,,,,,,,006,001,2024-05-31_15h27.47.805,ps,2023.2.3,29.91209731973016,2024-05-31 15h28.00.914476 -0400,
mini_blocks/3dp_wm_mini_block_0.xlsx,"*Break*
Entering the 3D WORKING MEMORY block
Rotation is Counter/Clockwise
Press <4> to continue",1,0,1,3D,p,180,False,True,4,obj2,300,120,output_pairs/3Dp_180_WM/3Dp_60_WM_04_1_obj_2_300deg.png,output_pairs/3Dp_180_WM/3Dp_60_WM_04_2_obj_2_120deg.png,483,comma,0,3,3,3,,,,,0,6,6,6,,,,,,,,,791.2148031000106,,,,,,,,,,,,,,,,,,,,,,,,,,,,,,,,,,,,,791.1471621000092,791.2148031000106,792.1426470000006,792.2427483999927,796.147063100012,796.147063100012,797.1470910999924,797.1470910999924,797.1470910999924,799.5101465999905,comma,1,2.3590510000067297,None,799.5103800999932,799.5424330999958,799.5424330999958,801.5153764999995,3.0,['slash'],[0.8441448000085074],[None],801.5155591999937,801.5428462999989,803.5099493000016,,,803.5688847000129,,,,,,,,,,,,,,,,,,,,,,,,,,,,,,,,,,,,,,,,,,,,,,,,,,,,,,,,,,,,,,,,,,,,,,,,,,,,,,,006,001,2024-05-31_15h27.47.805,ps,2023.2.3,29.91209731973016,2024-05-31 15h28.00.914476 -0400,
mini_blocks/3dp_wm_mini_block_0.xlsx,"*Break*
Entering the 3D WORKING MEMORY block
Rotation is Counter/Clockwise
Press <4> to continue",1,0,1,3D,p,180,True,True,12,sm4,160,340,output_pairs/3Dp_180_M_WM/3Dp_180_M_WM_12_1_sm_4_160deg.png,output_pairs/3Dp_180_M_WM/3Dp_180_M_WM_12_2_sm_4_340deg.png,58,period,0,3,3,3,,,,,0,7,7,7,,,,,,,,,803.5688847000129,,,,,,,,,,,,,,,,,,,,,,,,,,,,,,,,,,,,,803.5101289000013,803.5688847000129,804.5531079999928,804.586307199992,808.5137953000085,808.5762164000189,809.5428083000006,809.5094711999991,809.5094711999991,812.1101266000187,period,1,2.580637700011721,None,812.1103380999994,812.1423171999922,812.1423171999922,814.113190700009,1.0,['comma'],[1.060377999994671],[None],814.1133378999948,814.1428729000036,816.1199771999964,814.1428729000036,814.1428729000036,,,,,,,,,,,,,,,,,,,,,,,,,,,,,,,,,,,,,,,,,,,,,,,,,,,,,,,,,,,,,,,,,,,,,,,,,,,,,,,,006,001,2024-05-31_15h27.47.805,ps,2023.2.3,29.91209731973016,2024-05-31 15h28.00.914476 -0400,
mini_blocks/3dp_wm_mini_block_0.xlsx,"*Break*
Entering the 3D WORKING MEMORY block
Rotation is Counter/Clockwise
Press <4> to continue",1,0,1,3D,p,180,True,True,11,obj1,120,300,output_pairs/3Dp_180_M_WM/3Dp_180_M_WM_11_1_obj_12_120deg.png,output_pairs/3Dp_180_M_WM/3Dp_180_M_WM_11_2_obj_12_300deg.png,36,period,0,3,3,3,,,,,0,8,8,8,,,,,,,,,816.1832954999991,,,,,,,,,,,,,,,,,,,,,,,,,,,,,,,,,,,,,816.1201661000086,816.1832954999991,817.1094969999976,817.2095011000056,821.1426613999938,821.1093118000135,822.1473551999952,822.1139635000145,822.1139635000145,826.0439906000101,comma,0,3.9284474000160117,None,826.0442312000087,826.0758645000169,826.0758645000169,828.0488566000131,2.0,['period'],[1.006087399990065],[None],828.049024500011,828.0805042000138,830.0472242000105,,,,,,,,,,,,,,,,,,,,,,,,,,,,,,,,,,,,,,,,,,,,,,,,,,,,,,,,,,,,,,,,,,,,,,,,,,,,,,,,,,006,001,2024-05-31_15h27.47.805,ps,2023.2.3,29.91209731973016,2024-05-31 15h28.00.914476 -0400,
mini_blocks/3dp_wm_mini_block_0.xlsx,"*Break*
Entering the 3D WORKING MEMORY block
Rotation is Counter/Clockwise
Press <4> to continue",1,0,1,3D,p,0,False,True,18,obj2,280,280,output_pairs/3Dp_0_WM/3Dp_0_WM_18_1_obj_2_280deg.png,output_pairs/3Dp_0_WM/3Dp_0_WM_18_2_obj_2_280deg.png,117,comma,0,3,3,3,,,,,0,9,9,9,,,,,,,,,830.1125391999958,,,,,,,,,,,,,,,,,,,,,,,,,,,,,,,,,,,,,830.047418800008,830.1125391999958,831.0865747999924,831.119793299993,835.0762395999918,835.109675100015,836.0805054999946,836.0805054999946,836.0805054999946,837.2145000000019,comma,1,1.1222325999988243,None,837.2147057999973,837.2428755000001,837.2428755000001,839.2131056000071,4.0,['rshift'],[0.791460400010692],[None],839.2132612999994,839.2426263999951,841.2143845999963,839.2426263999951,839.2426263999951,841.2645678000117,,,,,,,,,,,,,,,,,,,,,,,,,,,,,,,,,,,,,,,,,,,,,,,,,,,,,,,,,,,,,,,,,,,,,,,,,,,,,,,006,001,2024-05-31_15h27.47.805,ps,2023.2.3,29.91209731973016,2024-05-31 15h28.00.914476 -0400,
mini_blocks/3dp_wm_mini_block_0.xlsx,"*Break*
Entering the 3D WORKING MEMORY block
Rotation is Counter/Clockwise
Press <4> to continue",1,0,1,3D,p,60,True,True,32,sm5,100,160,output_pairs/3Dp_60_M_WM/3Dp_60_M_WM_32_1_sm_5_100deg.png,output_pairs/3Dp_60_M_WM/3Dp_60_M_WM_32_2_sm_5_160deg.png,314,period,0,3,3,3,,,,,0,10,10,10,,,,,,,,,841.2645678000117,,,,,,,,,,,,,,,,,,,,,,,,,,,,,,,,,,,,,841.2145553000155,841.2645678000117,842.2198880999931,842.2764827999927,846.2140044000116,846.243230299995,847.2199830000172,847.2199830000172,847.2199830000172,849.0478798999975,period,1,1.7985006000089925,None,849.048083200003,849.0805363999971,849.0805363999971,851.0507729999954,1.0,['comma'],[0.5215415999991819],[None],851.0509323000151,851.080503300007,853.0476644000155,851.080503300007,851.080503300007,853.1039079000184,,,,,,,,,,,,,,,,,,,,,,,,,,,,,,,,,,,,,,,,,,,,,,,,,,,,,,,,,,,,,,,,,,,,,,,,,,,,,,,006,001,2024-05-31_15h27.47.805,ps,2023.2.3,29.91209731973016,2024-05-31 15h28.00.914476 -0400,
mini_blocks/3dp_wm_mini_block_0.xlsx,"*Break*
Entering the 3D WORKING MEMORY block
Rotation is Counter/Clockwise
Press <4> to continue",1,0,1,3D,p,120,True,True,29,obj2,320,200,output_pairs/3Dp_120_M_WM/3Dp_120_M_WM_29_1_obj_2_320deg.png,output_pairs/3Dp_120_M_WM/3Dp_120_M_WM_29_2_obj_2_200deg.png,661,period,0,3,3,3,,,,,0,11,11,11,,,,,,,,,853.1039079000184,,,,,,,,,,,,,,,,,,,,,,,,,,,,,,,,,,,,,853.0478298999951,853.1039079000184,854.0429002000019,854.1095876000181,858.0760210000153,858.0427716000122,859.0807092000032,859.0807092000032,859.0807092000032,862.8768563999911,period,1,3.785802500002319,None,862.8771661999926,862.9094360000163,862.9094360000163,864.8826572000107,1.0,['comma'],[0.749600700015435],[None],864.8828293000115,864.9140817000007,866.8869624999934,,,,,,,,,,,,,,,,,,,,,,,,,,,,,,,,,,,,,,,,,,,,,,,,,,,,,,,,,,,,,,,,,,,,,,,,,,,,,,,,,,006,001,2024-05-31_15h27.47.805,ps,2023.2.3,29.91209731973016,2024-05-31 15h28.00.914476 -0400,
mini_blocks/3dp_wm_mini_block_0.xlsx,"*Break*
Entering the 3D WORKING MEMORY block
Rotation is Counter/Clockwise
Press <4> to continue",1,0,1,3D,p,60,False,True,31,obj9,200,140,output_pairs/3Dp_60_WM/3Dp_60_WM_31_1_obj_9_200deg.png,output_pairs/3Dp_60_WM/3Dp_60_WM_31_2_obj_9_140deg.png,405,comma,0,3,3,3,,,,,0,12,12,12,,,,,,,,,866.9515626000066,,,,,,,,,,,,,,,,,,,,,,,,,,,,,,,,,,,,,866.8871479000081,866.9515626000066,867.8763806000061,867.9764060000016,871.8763762000017,871.8763762000017,872.8807415000047,872.8807415000047,872.8807415000047,874.4766577999981,comma,1,1.5933305000071414,None,874.4768616000074,874.5094108000048,874.5094108000048,876.4825002000143,3.0,['slash'],[1.2294830000028014],[None],876.4826499999908,876.5096178000094,878.4807922000182,,,,,,,,,,,,,,,,,,,,,,,,,,,,,,,,,,,,,,,,,,,,,,,,,,,,,,,,,,,,,,,,,,,,,,,,,,,,,,,,,,006,001,2024-05-31_15h27.47.805,ps,2023.2.3,29.91209731973016,2024-05-31 15h28.00.914476 -0400,
mini_blocks/3dp_wm_mini_block_0.xlsx,"*Break*
Entering the 3D WORKING MEMORY block
Rotation is Counter/Clockwise
Press <4> to continue",1,0,1,3D,p,0,True,True,2,obj1,220,220,output_pairs/3Dp_0_M_WM/3Dp_0_M_WM_02_1_obj_13_220deg.png,output_pairs/3Dp_0_M_WM/3Dp_0_M_WM_02_2_obj_13_220deg.png,518,period,0,3,3,3,,,,,0,13,13,13,,,,,,,,,878.5388167999918,,,,,,,,,,,,,,,,,,,,,,,,,,,,,,,,,,,,,878.4809958999977,878.5388167999918,879.4807010999939,879.5473078000068,883.480764500011,883.480764500011,884.4867842000094,884.4867842000094,884.4867842000094,886.1439528000192,period,1,1.6518156999954954,None,886.1441568000009,886.1764897000103,886.1764897000103,888.146516400011,1.0,['comma'],[0.9613332999870181],[None],888.1466700000165,888.1760979999963,890.1476091000077,888.1760979999963,888.1760979999963,,,,,,,,,,,,,,,,,,,,,,,,,,,,,,,,,,,,,,,,,,,,,,,,,,,,,,,,,,,,,,,,,,,,,,,,,,,,,,,,006,001,2024-05-31_15h27.47.805,ps,2023.2.3,29.91209731973016,2024-05-31 15h28.00.914476 -0400,
mini_blocks/3dp_wm_mini_block_0.xlsx,"*Break*
Entering the 3D WORKING MEMORY block
Rotation is Counter/Clockwise
Press <4> to continue",1,0,1,3D,p,120,True,True,3,obj1,0,240,output_pairs/3Dp_120_M_WM/3Dp_120_M_WM_03_1_obj_1_0deg.png,output_pairs/3Dp_120_M_WM/3Dp_120_M_WM_03_2_obj_1_240deg.png,664,period,0,3,3,3,,,,,0,14,14,14,,,,,,,,,890.2139509000117,,,,,,,,,,,,,,,,,,,,,,,,,,,,,,,,,,,,,890.1477789999917,890.2139509000117,891.1537308999978,891.220073000004,895.1475068000145,895.1808703000133,896.1531986000191,896.1531986000191,896.1531986000191,898.8774516000121,comma,0,2.721733199985465,None,898.877648099995,898.9098043999984,898.9098043999984,900.8799806000025,2.0,['period'],[0.764676499995403],[None],900.8801377000054,900.9093696000054,902.8769426000072,900.9093696000054,900.9093696000054,902.932426400017,,,,,,,,,,,,,,,,,,,,,,,,,,,,,,,,,,,,,,,,,,,,,,,,,,,,,,,,,,,,,,,,,,,,,,,,,,,,,,,006,001,2024-05-31_15h27.47.805,ps,2023.2.3,29.91209731973016,2024-05-31 15h28.00.914476 -0400,
mini_blocks/3dp_wm_mini_block_0.xlsx,"*Break*
Entering the 3D WORKING MEMORY block
Rotation is Counter/Clockwise
Press <4> to continue",1,0,1,3D,p,60,True,True,17,obj2,240,300,output_pairs/3Dp_60_M_WM/3Dp_60_M_WM_17_1_obj_2_240deg.png,output_pairs/3Dp_60_M_WM/3Dp_60_M_WM_17_2_obj_2_300deg.png,307,period,0,3,3,3,,,,,0,15,15,15,,,,,,,,,902.932426400017,,,,,,,,,,,,,,,,,,,,,,,,,,,,,,,,,,,,,902.877261799993,902.932426400017,903.8809717000113,903.9476956000144,907.8808538000158,907.8808538000158,908.8808295000053,908.8808295000053,908.8808295000053,912.3148278000008,period,1,3.4097465999948326,None,912.3150852000108,912.3432546000113,912.3432546000113,914.3135336000123,1.0,['comma'],[1.2272121999994852],[None],914.3136992999935,914.3428100000019,916.3103007000173,914.3428100000019,914.3428100000019,916.3428654000163,,,,,,,,,,,,,,,,,,,,,,,,,,,,,,,,,,,,,,,,,,,,,,,,,,,,,,,,,,,,,,,,,,,,,,,,,,,,,,,006,001,2024-05-31_15h27.47.805,ps,2023.2.3,29.91209731973016,2024-05-31 15h28.00.914476 -0400,
mini_blocks/3dp_wm_mini_block_0.xlsx,"*Break*
Entering the 3D WORKING MEMORY block
Rotation is Counter/Clockwise
Press <4> to continue",1,0,1,,,,,,,,,,,,,,0,3,3,3,,,,,,,,,,,,,,,,,,,,,,,,,,,,,,,,,,,,,,,,,,,,,,,,,,,,,,,,,,,,,,,,,,,,,,,,,,,,,,,,,,916.3103660999914,916.3428654000163,916.3428654000163,924.321090500016,4.0,['rshift'],[1.299159399990458],[None],924.3212728000071,1007.4147821000079,rshift,,,,,,,,,,,,,,,924.3528125000012,924.3528125000012,83.05762269999832,None,,,,,,,,,,,,,,,,,,,,,,,,,,,,,,,,,,,,,,,,,,,,,,,,,,006,001,2024-05-31_15h27.47.805,ps,2023.2.3,29.91209731973016,2024-05-31 15h28.00.914476 -0400,
mini_blocks/2d_single_mini_block_2.xlsx,"*Break*
Entering the 2D SIMULTANEOUS block
Rotation is Counter/Clockwise
Press <4> to continue",0,1,0,2D,None,0,True,False,None,obj4,40,None,output_pairs/2D_0m/2D_0m_obj_4_40deg.png,None,1127,period,0,4,4,4,0,0,0,0,,,,,,,,,,,,,1011.7551712999993,,,,,,,,,,,,,,,,,,,,,,,,,,,,,,1007.4151144000061,1007.4474523999961,1007.4474523999961,1011.7112076999911,rshift,4.2430302999855485,None,,,,,,,,,,,,,,,1021.7110042000131,1021.7434663000167,1021.7434663000167,1023.7161480000068,1.0,['comma'],[1.7140686999773607],[None],1023.7164122000104,1023.7437533000193,1025.710828900017,,,1025.7599319000146,,,,,,,,,,,,1011.7185797000129,1011.7551712999993,1012.7435901999997,1012.7435901999997,1012.7807070999988,1021.7434663000167,1021.7434663000167,1021.7107617000001,None,0,,,,,,,,,,,,,,,,,,,,,,,,,,,,,,,,,,,,,,,,,,,,,,,,,,,,,,,,,,006,001,2024-05-31_15h27.47.805,ps,2023.2.3,29.91209731973016,2024-05-31 15h28.00.914476 -0400,
mini_blocks/2d_single_mini_block_2.xlsx,"*Break*
Entering the 2D SIMULTANEOUS block
Rotation is Counter/Clockwise
Press <4> to continue",0,1,0,2D,None,180,True,False,None,obj9,180,0,output_pairs/2D_180m/2D_180m_obj_9_180_to_0deg.png,None,1364,period,0,4,4,4,0,1,1,1,,,,,,,,,,,,,1025.7599319000146,,,,,,,,,,,,,,,,,,,,,,,,,,,,,,,,,,,,,,,,,,,,,,,,,,,1030.977786000003,1031.010031600017,1031.010031600017,1032.9833254000114,2.0,['period'],[0.9518946999742184],[None],1032.9834774000046,1033.0146971000067,1035.0148372999975,,,,,,,,,,,,,,,1025.7109941999952,1025.7599319000146,1026.714731200016,1026.714731200016,1026.7770401000162,,,1030.9775225000049,comma,0,4.238853899994865,None,,,,,,,,,,,,,,,,,,,,,,,,,,,,,,,,,,,,,,,,,,,,,,,,,,,,,,,,006,001,2024-05-31_15h27.47.805,ps,2023.2.3,29.91209731973016,2024-05-31 15h28.00.914476 -0400,
mini_blocks/2d_single_mini_block_2.xlsx,"*Break*
Entering the 2D SIMULTANEOUS block
Rotation is Counter/Clockwise
Press <4> to continue",0,1,0,2D,None,180,True,False,None,obj2,260,80,output_pairs/2D_180m/2D_180m_obj_2_260_to_80deg.png,None,1368,period,0,4,4,4,0,2,2,2,,,,,,,,,,,,,1035.0545394000073,,,,,,,,,,,,,,,,,,,,,,,,,,,,,,,,,,,,,,,,,,,,,,,,,,,1040.5156737999932,1040.5436828999955,1040.5436828999955,1042.5141351000057,3.0,['slash'],[1.6104362000187393],[None],1042.5142841000052,1042.5433229000191,1044.515213400009,1042.5433229000191,1042.5433229000191,1044.5642425999977,,,,,,,,,,,,1035.0151076000184,1035.0545394000073,1035.9875275999948,1035.9875275999948,1036.0541650000087,,,1040.515463799995,comma,0,4.5194842999917455,None,,,,,,,,,,,,,,,,,,,,,,,,,,,,,,,,,,,,,,,,,,,,,,,,,,,,,,,,006,001,2024-05-31_15h27.47.805,ps,2023.2.3,29.91209731973016,2024-05-31 15h28.00.914476 -0400,
mini_blocks/2d_single_mini_block_2.xlsx,"*Break*
Entering the 2D SIMULTANEOUS block
Rotation is Counter/Clockwise
Press <4> to continue",0,1,0,2D,None,60,True,False,None,obj9,180,240,output_pairs/2D_60m/2D_60m_obj_9_180_to_240deg.png,None,554,period,0,4,4,4,0,3,3,3,,,,,,,,,,,,,1044.5642425999977,,,,,,,,,,,,,,,,,,,,,,,,,,,,,,,,,,,,,,,,,,,,,,,,,,,1052.8112933000084,1052.843405099993,1052.843405099993,1054.8143860000127,3.0,['slash'],[0.8717017000017222],[None],1054.8145856000192,1054.8435713000072,1056.8207152000105,1054.8435713000072,1054.8435713000072,,,,,,,,,,,,,1044.5153869999922,1044.5642425999977,1045.5149287999957,1045.5149287999957,1045.581368300016,,,1052.811078300001,comma,0,7.279750199988484,None,,,,,,,,,,,,,,,,,,,,,,,,,,,,,,,,,,,,,,,,,,,,,,,,,,,,,,,,006,001,2024-05-31_15h27.47.805,ps,2023.2.3,29.91209731973016,2024-05-31 15h28.00.914476 -0400,
mini_blocks/2d_single_mini_block_2.xlsx,"*Break*
Entering the 2D SIMULTANEOUS block
Rotation is Counter/Clockwise
Press <4> to continue",0,1,0,2D,None,180,False,False,None,obj1,160,340,output_pairs/2D_180/2D_180_obj_13_160_to_340deg.png,None,1075,comma,0,4,4,4,0,4,4,4,,,,,,,,,,,,,1056.8689854000113,,,,,,,,,,,,,,,,,,,,,,,,,,,,,,,,,,,,,,,,,,,,,,,,,,,1062.7490551999945,1062.781471299997,1062.781471299997,1064.7786239999987,3.0,['slash'],[0.893111699988367],[None],1064.77878220001,1064.810210399999,1066.7771307000075,,,,,,,,,,,,,,,1056.8208981000062,1056.8689854000113,1057.8104998999916,1057.8104998999916,1057.8772080999915,,,1062.7488538000034,comma,1,4.919922500004759,None,,,,,,,,,,,,,,,,,,,,,,,,,,,,,,,,,,,,,,,,,,,,,,,,,,,,,,,,006,001,2024-05-31_15h27.47.805,ps,2023.2.3,29.91209731973016,2024-05-31 15h28.00.914476 -0400,
mini_blocks/2d_single_mini_block_2.xlsx,"*Break*
Entering the 2D SIMULTANEOUS block
Rotation is Counter/Clockwise
Press <4> to continue",0,1,0,2D,None,120,True,False,None,obj6,160,280,output_pairs/2D_120m/2D_120m_obj_6_160_to_280deg.png,None,1378,period,0,4,4,4,0,5,5,5,,,,,,,,,,,,,1066.821729599993,,,,,,,,,,,,,,,,,,,,,,,,,,,,,,,,,,,,,,,,,,,,,,,,,,,1072.5119294000033,1072.5436047000112,1072.5436047000112,1074.5166404000192,2.0,['period'],[1.1946012999978848],[None],1074.5167942999979,1074.5483458999952,1076.5442474000156,,,,,,,,,,,,,,,1066.7774036999908,1066.821729599993,1067.7483560999972,1067.7483560999972,1067.848233800003,,,1072.5116475000104,period,1,4.733649400004651,None,,,,,,,,,,,,,,,,,,,,,,,,,,,,,,,,,,,,,,,,,,,,,,,,,,,,,,,,006,001,2024-05-31_15h27.47.805,ps,2023.2.3,29.91209731973016,2024-05-31 15h28.00.914476 -0400,
mini_blocks/2d_single_mini_block_2.xlsx,"*Break*
Entering the 2D SIMULTANEOUS block
Rotation is Counter/Clockwise
Press <4> to continue",0,1,0,2D,None,120,False,False,None,sm3,120,240,output_pairs/2D_120/2D_120_SM3_120_to_240deg.png,None,1090,comma,0,4,4,4,0,6,6,6,,,,,,,,,,,,,1076.6035107999924,,,,,,,,,,,,,,,,,,,,,,,,,,,,,,,,,,,,,,,,,,,,,,,,,,,1081.8489726000116,1081.881335700018,1081.881335700018,1083.852268000017,1.0,['comma'],[0.6812612999929115],[None],1083.8524184999987,1083.8816133000073,1085.8773734999995,1083.8816133000073,1083.8816133000073,,,,,,,,,,,,,1076.5445016000012,1076.6035107999924,1077.548246499995,1077.548246499995,1077.6207528999948,,,1081.8487621000095,period,0,4.278135000000475,None,,,,,,,,,,,,,,,,,,,,,,,,,,,,,,,,,,,,,,,,,,,,,,,,,,,,,,,,006,001,2024-05-31_15h27.47.805,ps,2023.2.3,29.91209731973016,2024-05-31 15h28.00.914476 -0400,
mini_blocks/2d_single_mini_block_2.xlsx,"*Break*
Entering the 2D SIMULTANEOUS block
Rotation is Counter/Clockwise
Press <4> to continue",0,1,0,2D,None,60,True,False,None,sm4,180,240,output_pairs/2D_60m/2D_60m_SM4_180_to_240deg.png,None,547,period,0,4,4,4,0,7,7,7,,,,,,,,,,,,,1085.9330519000068,,,,,,,,,,,,,,,,,,,,,,,,,,,,,,,,,,,,,,,,,,,,,,,,,,,1095.8107675999927,1095.8768610999978,1095.8768610999978,1097.8482977999956,1.0,['comma'],[1.1806402999791317],[None],1097.8484599000076,1097.8770782999927,1099.8444493999996,1097.8770782999927,1097.8770782999927,1099.8906247999985,,,,,,,,,,,,1085.877658900019,1085.9330519000068,1086.8438082000066,1086.8438082000066,1086.954303400009,1095.8437415999942,1095.8437415999942,1095.8105667000054,None,0,,,,,,,,,,,,,,,,,,,,,,,,,,,,,,,,,,,,,,,,,,,,,,,,,,,,,,,,,,006,001,2024-05-31_15h27.47.805,ps,2023.2.3,29.91209731973016,2024-05-31 15h28.00.914476 -0400,
mini_blocks/2d_single_mini_block_2.xlsx,"*Break*
Entering the 2D SIMULTANEOUS block
Rotation is Counter/Clockwise
Press <4> to continue",0,1,0,2D,None,60,False,False,None,obj1,320,20,output_pairs/2D_60/2D_60_obj_12_320_to_20deg.png,None,955,comma,0,4,4,4,0,8,8,8,,,,,,,,,,,,,1099.8906247999985,,,,,,,,,,,,,,,,,,,,,,,,,,,,,,,,,,,,,,,,,,,,,,,,,,,1104.911629500013,1104.943885100016,1104.943885100016,1106.9167536000023,None,None,,,1106.9168435000174,1106.944100599998,1108.9111071999941,,,1108.9758262000105,,,,,,,,,,,,1099.844632399996,1099.8906247999985,1100.8484973000013,1100.8484973000013,1100.9148795999936,,,1104.9114145000058,period,0,4.050849400024163,None,,,,,,,,,,,,,,,,,,,,,,,,,,,,,,,,,,,,,,,,,,,,,,,,,,,,,,,,006,001,2024-05-31_15h27.47.805,ps,2023.2.3,29.91209731973016,2024-05-31 15h28.00.914476 -0400,
mini_blocks/2d_single_mini_block_2.xlsx,"*Break*
Entering the 2D SIMULTANEOUS block
Rotation is Counter/Clockwise
Press <4> to continue",0,1,0,2D,None,120,True,False,None,obj3,220,340,output_pairs/2D_120m/2D_120m_obj_3_220_to_340deg.png,None,1376,period,0,4,4,4,0,9,9,9,,,,,,,,,,,,,1108.9758262000105,,,,,,,,,,,,,,,,,,,,,,,,,,,,,,,,,,,,,,,,,,,,,,,,,,,1114.1887677999912,1114.2101563000178,1114.2101563000178,1116.1810925000173,3.0,['slash'],[1.1200370000151452],[None],1116.1812478000065,1116.2106361000042,1118.1882012000133,1116.2106361000042,1116.2106361000042,1118.2293417000037,,,,,,,,,,,,1108.9112870999961,1108.9758262000105,1109.9209989999945,1109.9209989999945,1109.9772651999956,,,1114.1885527000122,comma,0,4.234212100011064,None,,,,,,,,,,,,,,,,,,,,,,,,,,,,,,,,,,,,,,,,,,,,,,,,,,,,,,,,006,001,2024-05-31_15h27.47.805,ps,2023.2.3,29.91209731973016,2024-05-31 15h28.00.914476 -0400,
mini_blocks/2d_single_mini_block_2.xlsx,"*Break*
Entering the 2D SIMULTANEOUS block
Rotation is Counter/Clockwise
Press <4> to continue",0,1,0,2D,None,0,False,False,None,obj1,160,None,output_pairs/2D_0/2D_0_obj_14_160deg.png,None,2015,comma,0,4,4,4,0,10,10,10,,,,,,,,,,,,,1118.2293417000037,,,,,,,,,,,,,,,,,,,,,,,,,,,,,,,,,,,,,,,,,,,,,,,,,,,1120.888743699994,1120.9209754000185,1120.9209754000185,1122.9126415000064,4.0,['rshift'],[0.705342200002633],[None],1122.9128368000092,1122.9439342000114,1124.9211263000034,,,,,,,,,,,,,,,1118.1883672999975,1118.2293417000037,1119.2107401000103,1119.2107401000103,1119.2440208999906,,,1120.8885407999915,comma,1,1.6560631999745965,None,,,,,,,,,,,,,,,,,,,,,,,,,,,,,,,,,,,,,,,,,,,,,,,,,,,,,,,,006,001,2024-05-31_15h27.47.805,ps,2023.2.3,29.91209731973016,2024-05-31 15h28.00.914476 -0400,
mini_blocks/2d_single_mini_block_2.xlsx,"*Break*
Entering the 2D SIMULTANEOUS block
Rotation is Counter/Clockwise
Press <4> to continue",0,1,0,2D,None,0,True,False,None,obj9,160,None,output_pairs/2D_0m/2D_0m_obj_9_160deg.png,None,1138,period,0,4,4,4,0,11,11,11,,,,,,,,,,,,,1124.9844602000085,,,,,,,,,,,,,,,,,,,,,,,,,,,,,,,,,,,,,,,,,,,,,,,,,,,1130.9827243000036,1131.0150976000004,1131.0150976000004,1133.0120803000173,3.0,['slash'],[1.1077378999907523],[None],1133.0122365000134,1133.0438319999957,1135.010733300005,,,,,,,,,,,,,,,1124.921308000019,1124.9844602000085,1125.910794299998,1125.910794299998,1126.0107069000078,,,1130.982527699991,comma,0,5.051437899994198,None,,,,,,,,,,,,,,,,,,,,,,,,,,,,,,,,,,,,,,,,,,,,,,,,,,,,,,,,006,001,2024-05-31_15h27.47.805,ps,2023.2.3,29.91209731973016,2024-05-31 15h28.00.914476 -0400,
mini_blocks/2d_single_mini_block_2.xlsx,"*Break*
Entering the 2D SIMULTANEOUS block
Rotation is Counter/Clockwise
Press <4> to continue",0,1,0,2D,None,120,False,False,None,obj1,200,320,output_pairs/2D_120/2D_120_obj_14_200_to_320deg.png,None,1119,comma,0,4,4,4,0,12,12,12,,,,,,,,,,,,,1135.0574477000046,,,,,,,,,,,,,,,,,,,,,,,,,,,,,,,,,,,,,,,,,,,,,,,,,,,1141.2823349999962,1141.314855100005,1141.314855100005,1143.3121898999962,2.0,['period'],[1.1591743999742903],[None],1143.3123508999997,1143.3437527999922,1145.3153493000136,,,,,,,,,,,,,,,1135.0109971000056,1135.0574477000046,1135.9819372000056,1135.9819372000056,1136.0816226000024,,,1141.282123300014,comma,1,5.284448299993528,None,,,,,,,,,,,,,,,,,,,,,,,,,,,,,,,,,,,,,,,,,,,,,,,,,,,,,,,,006,001,2024-05-31_15h27.47.805,ps,2023.2.3,29.91209731973016,2024-05-31 15h28.00.914476 -0400,
mini_blocks/2d_single_mini_block_2.xlsx,"*Break*
Entering the 2D SIMULTANEOUS block
Rotation is Counter/Clockwise
Press <4> to continue",0,1,0,2D,None,180,False,False,None,obj8,340,160,output_pairs/2D_180/2D_180_obj_8_340_to_160deg.png,None,1071,comma,0,4,4,4,0,13,13,13,,,,,,,,,,,,,1145.3541422999988,,,,,,,,,,,,,,,,,,,,,,,,,,,,,,,,,,,,,,,,,,,,,,,,,,,1152.178834099992,1152.2107491999923,1152.2107491999923,1154.1836214000068,1.0,['comma'],[1.223048399988329],[None],1154.1837749000115,1154.2106704000034,1156.1781921999936,,,1156.2170637999952,,,,,,,,,,,,1145.3157130000181,1145.3541422999988,1146.287980299996,1146.287980299996,1146.3546543999983,,,1152.178440299991,comma,1,5.867155599989928,None,,,,,,,,,,,,,,,,,,,,,,,,,,,,,,,,,,,,,,,,,,,,,,,,,,,,,,,,006,001,2024-05-31_15h27.47.805,ps,2023.2.3,29.91209731973016,2024-05-31 15h28.00.914476 -0400,
mini_blocks/2d_single_mini_block_2.xlsx,"*Break*
Entering the 2D SIMULTANEOUS block
Rotation is Counter/Clockwise
Press <4> to continue",0,1,0,2D,None,0,False,False,None,sm3,20,None,output_pairs/2D_0/2D_0_SM3_20deg.png,None,2003,comma,0,4,4,4,0,14,14,14,,,,,,,,,,,,,1156.2170637999952,,,,,,,,,,,,,,,,,,,,,,,,,,,,,,,,,,,,,,,,,,,,,,,,,,,1159.3782306000066,1159.4105554000125,1159.4105554000125,1161.3837944999977,4.0,['rshift'],[0.48822670002118684],[None],1161.3839517000015,1161.415256200009,1163.381879099994,,,,,,,,,,,,,,,1156.178372399998,1156.2170637999952,1157.2151603999955,1157.2151603999955,1157.2538031000004,,,1159.3780314000032,comma,1,2.1314298000070266,None,,,,,,,,,,,,,,,,,,,,,,,,,,,,,,,,,,,,,,,,,,,,,,,,,,,,,,,,006,001,2024-05-31_15h27.47.805,ps,2023.2.3,29.91209731973016,2024-05-31 15h28.00.914476 -0400,
mini_blocks/2d_single_mini_block_2.xlsx,"*Break*
Entering the 2D SIMULTANEOUS block
Rotation is Counter/Clockwise
Press <4> to continue",0,1,0,2D,None,60,False,False,None,obj5,200,260,output_pairs/2D_60/2D_60_obj_5_200_to_260deg.png,None,941,comma,0,4,4,4,0,15,15,15,,,,,,,,,,,,,1163.4293611000176,,,,,,,,,,,,,,,,,,,,,,,,,,,,,,,,,,,,,,,,,,,,,,,,,,,1169.1831402000098,1169.2150026000163,1169.2150026000163,1171.1855580999982,3.0,['slash'],[0.978777699987404],[None],1171.1857042000047,1171.2152857000183,1173.2111038000148,1171.2152857000183,1171.2152857000183,,,,,,,,,,,,,1163.3820702999947,1163.4293611000176,1164.3878006000014,1164.3878006000014,1164.4546990999952,,,1169.1829297000077,comma,1,4.774984099989524,None,,,,,,,,,,,,,,,,,,,,,,,,,,,,,,,,,,,,,,,,,,,,,,,,,,,,,,,,006,001,2024-05-31_15h27.47.805,ps,2023.2.3,29.91209731973016,2024-05-31 15h28.00.914476 -0400,
mini_blocks/2d_single_mini_block_2.xlsx,"*Break*
Entering the 2D SIMULTANEOUS block
Rotation is Counter/Clockwise
Press <4> to continue",0,1,0,,,,,,,,,,,,,,0,4,4,4,,,,,,,,,,,,,,,,,,,,,,,,,,,,,,,,,,,,,,,,,,,,,,,,,,,,,,,,,,,,,,,,,,,,,,,,,,,,,,,,,,1173.2177663000184,1173.2444164000044,1173.2444164000044,1181.2127175999922,4.0,['rshift'],[1.102096699993126],[None],1181.2128592999943,1181.2128866999992,None,,,,,,,,,,,,,,,,,,,,,,,,,,,,,,,,,,,,,,,,,,,,,,,,,,,,,,,,,,,,,,,,,,,,006,001,2024-05-31_15h27.47.805,ps,2023.2.3,29.91209731973016,2024-05-31 15h28.00.914476 -0400,
mini_blocks/2d_single_mini_block_3.xlsx,"*Break*
Entering the 2D SIMULTANEOUS block
Rotation is Counter/Clockwise
Press <4> to continue",0,1,0,2D,None,60,True,False,None,obj4,160,220,output_pairs/2D_60m/2D_60m_obj_4_160_to_220deg.png,None,548,period,0,5,5,5,0,0,0,0,,,,,,,,,,,,,1186.215854900016,,,,,,,,,,,,,,,,,,,,,,,,,,,,,,1181.213007000013,1181.243898500019,1181.243898500019,1186.1552807000116,rshift,4.902480699995067,None,,,,,,,,,,,,,,,1194.8120219999983,1194.8439649000065,1194.8439649000065,1196.8176716000016,4.0,['rshift'],[0.991143799998099],[None],1196.8179929000034,1196.8487186999992,1198.8215308999934,,,,,,,,,,,,,,,1186.161498500005,1186.215854900016,1187.1777678999933,1187.1777678999933,1187.2443686000188,,,1194.811699700018,period,1,7.608733300003223,None,,,,,,,,,,,,,,,,,,,,,,,,,,,,,,,,,,,,,,,,,,,,,,,,,,,,,,,,006,001,2024-05-31_15h27.47.805,ps,2023.2.3,29.91209731973016,2024-05-31 15h28.00.914476 -0400,
mini_blocks/2d_single_mini_block_3.xlsx,"*Break*
Entering the 2D SIMULTANEOUS block
Rotation is Counter/Clockwise
Press <4> to continue",0,1,0,2D,None,0,True,False,None,obj8,340,None,output_pairs/2D_0m/2D_0m_obj_8_340deg.png,None,1151,period,0,5,5,5,0,1,1,1,,,,,,,,,,,,,1198.8639122000022,,,,,,,,,,,,,,,,,,,,,,,,,,,,,,,,,,,,,,,,,,,,,,,,,,,1202.1456362000026,1202.1820474000124,1202.1820474000124,1204.1794733999996,3.0,['slash'],[1.292660800012527],[None],1204.1796325000178,1204.2108030999952,1206.1488981000148,,,,,,,,,,,,,,,1198.821707199997,1198.8639122000022,1199.8110837000131,1199.8110837000131,1199.8777695000172,,,1202.1454150000063,comma,0,2.31057519998285,None,,,,,,,,,,,,,,,,,,,,,,,,,,,,,,,,,,,,,,,,,,,,,,,,,,,,,,,,006,001,2024-05-31_15h27.47.805,ps,2023.2.3,29.91209731973016,2024-05-31 15h28.00.914476 -0400,
mini_blocks/2d_single_mini_block_3.xlsx,"*Break*
Entering the 2D SIMULTANEOUS block
Rotation is Counter/Clockwise
Press <4> to continue",0,1,0,2D,None,0,False,False,None,sm2,100,None,output_pairs/2D_0/2D_0_SM2_100deg.png,None,2001,comma,0,5,5,5,0,2,2,2,,,,,,,,,,,,,1206.206068200001,,,,,,,,,,,,,,,,,,,,,,,,,,,,,,,,,,,,,,,,,,,,,,,,,,,1208.3452899999975,1208.3774806000001,1208.3774806000001,1210.350821,4.0,"['rshift', 'rshift']","[0.43398319999687374, 1.4166310000000522]","[None, None]",1210.3509845999943,1210.3777837000089,1212.3488524999993,,,,,,,,,,,,,,,1206.149083299999,1206.206068200001,1207.1546739000187,1207.1546739000187,1207.2214956000098,,,1208.3450773000077,comma,1,1.1836067999829538,None,,,,,,,,,,,,,,,,,,,,,,,,,,,,,,,,,,,,,,,,,,,,,,,,,,,,,,,,006,001,2024-05-31_15h27.47.805,ps,2023.2.3,29.91209731973016,2024-05-31 15h28.00.914476 -0400,
mini_blocks/2d_single_mini_block_3.xlsx,"*Break*
Entering the 2D SIMULTANEOUS block
Rotation is Counter/Clockwise
Press <4> to continue",0,1,0,2D,None,60,True,False,None,obj1,180,240,output_pairs/2D_60m/2D_60m_obj_1_180_to_240deg.png,None,559,period,0,5,5,5,0,3,3,3,,,,,,,,,,,,,1212.3958794999926,,,,,,,,,,,,,,,,,,,,,,,,,,,,,,,,,,,,,,,,,,,,,,,,,,,1219.9124120000051,1219.9440547999984,1219.9440547999984,1221.9152437000012,2.0,['period'],[0.6828558999986853],[None],1221.915410799993,1221.9443589000148,1223.9119399000192,1221.9443589000148,1221.9443589000148,1223.9495200999954,,,,,,,,,,,,1212.3490365000034,1212.3958794999926,1213.348740699992,1213.348740699992,1213.4151395999943,,,1219.9121914000134,comma,0,6.541705399984494,None,,,,,,,,,,,,,,,,,,,,,,,,,,,,,,,,,,,,,,,,,,,,,,,,,,,,,,,,006,001,2024-05-31_15h27.47.805,ps,2023.2.3,29.91209731973016,2024-05-31 15h28.00.914476 -0400,
mini_blocks/2d_single_mini_block_3.xlsx,"*Break*
Entering the 2D SIMULTANEOUS block
Rotation is Counter/Clockwise
Press <4> to continue",0,1,0,2D,None,60,False,False,None,obj9,100,160,output_pairs/2D_60/2D_60_obj_9_100_to_160deg.png,None,949,comma,0,5,5,5,0,4,4,4,,,,,,,,,,,,,1223.9495200999954,,,,,,,,,,,,,,,,,,,,,,,,,,,,,,,,,,,,,,,,,,,,,,,,,,,1230.0128716000181,1230.0446088000026,1230.0446088000026,1232.0145707000047,3.0,['slash'],[0.7338033000123687],[None],1232.0147199000057,1232.0442657000094,1234.0157168000005,1232.0442657000094,1232.0442657000094,,,,,,,,,,,,,1223.912106200005,1223.9495200999954,1224.9214419999917,1224.9214419999917,1224.9550865000056,,,1230.0125867000024,comma,1,5.089384599996265,None,,,,,,,,,,,,,,,,,,,,,,,,,,,,,,,,,,,,,,,,,,,,,,,,,,,,,,,,006,001,2024-05-31_15h27.47.805,ps,2023.2.3,29.91209731973016,2024-05-31 15h28.00.914476 -0400,
mini_blocks/2d_single_mini_block_3.xlsx,"*Break*
Entering the 2D SIMULTANEOUS block
Rotation is Counter/Clockwise
Press <4> to continue",0,1,0,2D,None,0,True,False,None,obj7,280,None,output_pairs/2D_0m/2D_0m_obj_7_280deg.png,None,1125,period,0,5,5,5,0,5,5,5,,,,,,,,,,,,,1234.0681221999985,,,,,,,,,,,,,,,,,,,,,,,,,,,,,,,,,,,,,,,,,,,,,,,,,,,1242.7786990000168,1242.8109592999972,1242.8109592999972,1244.7817413000157,2.0,['period'],[1.3992733999912161],[None],1244.781898599991,1244.8110797000118,1246.7881673999946,1244.8110797000118,1244.8110797000118,,,,,,,,,,,,,1234.0159106999927,1234.0681221999985,1235.0214093000104,1235.0214093000104,1235.088105600007,,,1242.7784823999973,period,1,7.741499099996872,None,,,,,,,,,,,,,,,,,,,,,,,,,,,,,,,,,,,,,,,,,,,,,,,,,,,,,,,,006,001,2024-05-31_15h27.47.805,ps,2023.2.3,29.91209731973016,2024-05-31 15h28.00.914476 -0400,
mini_blocks/2d_single_mini_block_3.xlsx,"*Break*
Entering the 2D SIMULTANEOUS block
Rotation is Counter/Clockwise
Press <4> to continue",0,1,0,2D,None,180,False,False,None,obj3,120,300,output_pairs/2D_180/2D_180_obj_3_120_to_300deg.png,None,1082,comma,0,5,5,5,0,6,6,6,,,,,,,,,,,,,1246.83871370001,,,,,,,,,,,,,,,,,,,,,,,,,,,,,,,,,,,,,,,,,,,,,,,,,,,1253.5494813999976,1253.578038000007,1253.578038000007,1255.5485018000181,4.0,['rshift'],[0.9039473000157159],[None],1255.5486525000015,1255.5775180000055,1257.549482500006,1255.5775180000055,1255.5775180000055,1257.6007776000188,,,,,,,,,,,,1246.7884160999965,1246.83871370001,1247.7779674000049,1247.7779674000049,1247.8445731000102,,,1253.5492834000033,comma,1,5.7442189999856055,None,,,,,,,,,,,,,,,,,,,,,,,,,,,,,,,,,,,,,,,,,,,,,,,,,,,,,,,,006,001,2024-05-31_15h27.47.805,ps,2023.2.3,29.91209731973016,2024-05-31 15h28.00.914476 -0400,
mini_blocks/2d_single_mini_block_3.xlsx,"*Break*
Entering the 2D SIMULTANEOUS block
Rotation is Counter/Clockwise
Press <4> to continue",0,1,0,2D,None,120,True,False,None,obj1,80,200,output_pairs/2D_120m/2D_120m_obj_10_80_to_200deg.png,None,1381,period,0,5,5,5,0,7,7,7,,,,,,,,,,,,,1257.6007776000188,,,,,,,,,,,,,,,,,,,,,,,,,,,,,,,,,,,,,,,,,,,,,,,,,,,1262.3122505999927,1262.3445820999914,1262.3445820999914,1264.3176323999942,3.0,['slash'],[0.921148199995514],[None],1264.3178474000015,1264.3490355999966,1266.3450612000015,,,,,,,,,,,,,,,1257.5496529999946,1257.6007776000188,1258.549144299992,1258.549144299992,1258.6155345000152,,,1262.3120193000068,comma,0,3.7492880999925546,None,,,,,,,,,,,,,,,,,,,,,,,,,,,,,,,,,,,,,,,,,,,,,,,,,,,,,,,,006,001,2024-05-31_15h27.47.805,ps,2023.2.3,29.91209731973016,2024-05-31 15h28.00.914476 -0400,
mini_blocks/2d_single_mini_block_3.xlsx,"*Break*
Entering the 2D SIMULTANEOUS block
Rotation is Counter/Clockwise
Press <4> to continue",0,1,0,2D,None,180,True,False,None,sm1,220,40,output_pairs/2D_180m/2D_180m_SM1_220_to_40deg.png,None,1361,period,0,5,5,5,0,8,8,8,,,,,,,,,,,,,1266.3932961999963,,,,,,,,,,,,,,,,,,,,,,,,,,,,,,,,,,,,,,,,,,,,,,,,,,,1271.4827951999905,1271.5153312000039,1271.5153312000039,1273.5129674999916,3.0,['slash'],[1.4551752999832388],[None],1273.5131264000083,1273.5444233000162,1275.516109899996,,,,,,,,,,,,,,,1266.345412900002,1266.3932961999963,1267.3114127000154,1267.3114127000154,1267.4114291000005,,,1271.4825993000122,period,1,4.148068399983458,None,,,,,,,,,,,,,,,,,,,,,,,,,,,,,,,,,,,,,,,,,,,,,,,,,,,,,,,,006,001,2024-05-31_15h27.47.805,ps,2023.2.3,29.91209731973016,2024-05-31 15h28.00.914476 -0400,
mini_blocks/2d_single_mini_block_3.xlsx,"*Break*
Entering the 2D SIMULTANEOUS block
Rotation is Counter/Clockwise
Press <4> to continue",0,1,0,2D,None,180,False,False,None,obj6,80,260,output_pairs/2D_180/2D_180_obj_6_80_to_260deg.png,None,1067,comma,0,5,5,5,0,9,9,9,,,,,,,,,,,,,1275.5780937999953,,,,,,,,,,,,,,,,,,,,,,,,,,,,,,,,,,,,,,,,,,,,,,,,,,,1280.3126364999916,1280.3444600999937,1280.3444600999937,1282.317685499991,1.0,['comma'],[1.2345295999839436],[None],1282.3179050000035,1282.3491549000028,1284.3448752000113,,,,,,,,,,,,,,,1275.516291900014,1275.5780937999953,1276.482543399994,1276.482543399994,1276.5824174000008,,,1280.3124400000088,period,0,3.824513499974273,None,,,,,,,,,,,,,,,,,,,,,,,,,,,,,,,,,,,,,,,,,,,,,,,,,,,,,,,,006,001,2024-05-31_15h27.47.805,ps,2023.2.3,29.91209731973016,2024-05-31 15h28.00.914476 -0400,
mini_blocks/2d_single_mini_block_3.xlsx,"*Break*
Entering the 2D SIMULTANEOUS block
Rotation is Counter/Clockwise
Press <4> to continue",0,1,0,2D,None,60,False,False,None,sm2,20,80,output_pairs/2D_60/2D_60_SM2_20_to_80deg.png,None,929,comma,0,5,5,5,0,10,10,10,,,,,,,,,,,,,1284.382740000001,,,,,,,,,,,,,,,,,,,,,,,,,,,,,,,,,,,,,,,,,,,,,,,,,,,1292.456084400008,1292.4884273000062,1292.4884273000062,1294.4799208000186,3.0,['slash'],[1.1708306999935303],[None],1294.480080600013,1294.5112900999957,1296.4826804000186,,,,,,,,,,,,,,,1284.3450781000138,1284.382740000001,1285.3217732000048,1285.3217732000048,1285.3884753000166,,,1292.4558719999914,comma,1,7.120748999994248,None,,,,,,,,,,,,,,,,,,,,,,,,,,,,,,,,,,,,,,,,,,,,,,,,,,,,,,,,006,001,2024-05-31_15h27.47.805,ps,2023.2.3,29.91209731973016,2024-05-31 15h28.00.914476 -0400,
mini_blocks/2d_single_mini_block_3.xlsx,"*Break*
Entering the 2D SIMULTANEOUS block
Rotation is Counter/Clockwise
Press <4> to continue",0,1,0,2D,None,180,True,False,None,obj1,160,340,output_pairs/2D_180m/2D_180_obj_1_160_to_340deg.png,None,1350,period,0,5,5,5,0,11,11,11,,,,,,,,,,,,,1296.5194819000026,,,,,,,,,,,,,,,,,,,,,,,,,,,,,,,,,,,,,,,,,,,,,,,,,,,1302.9461505000072,1302.9782440999988,1302.9782440999988,1304.9508913000172,3.0,['slash'],[0.8808573999849614],[None],1304.9510462000035,1304.9782664999948,1306.9455050000106,,,1306.990751300007,,,,,,,,,,,,1296.4828670000134,1296.5194819000026,1297.4778882999963,1297.4778882999963,1297.5450427000178,,,1302.9459460999933,comma,0,5.435862800019095,None,,,,,,,,,,,,,,,,,,,,,,,,,,,,,,,,,,,,,,,,,,,,,,,,,,,,,,,,006,001,2024-05-31_15h27.47.805,ps,2023.2.3,29.91209731973016,2024-05-31 15h28.00.914476 -0400,
mini_blocks/2d_single_mini_block_3.xlsx,"*Break*
Entering the 2D SIMULTANEOUS block
Rotation is Counter/Clockwise
Press <4> to continue",0,1,0,2D,None,120,True,False,None,sm3,340,100,output_pairs/2D_120m/2D_120m_SM3_340_to_100deg.png,None,1387,period,0,5,5,5,0,12,12,12,,,,,,,,,,,,,1306.990751300007,,,,,,,,,,,,,,,,,,,,,,,,,,,,,,,,,,,,,,,,,,,,,,,,,,,1311.3456590000133,1311.3779371000128,1311.3779371000128,1313.351206899999,1.0,['comma'],[0.9295697000052314],[None],1313.3513887000154,1313.3825360999908,1315.3783480999991,,,,,,,,,,,,,,,1306.9456827999966,1306.990751300007,1307.9491678999912,1307.9491678999912,1308.0114962999942,,,1311.3454294000112,period,1,3.3898673999938183,None,,,,,,,,,,,,,,,,,,,,,,,,,,,,,,,,,,,,,,,,,,,,,,,,,,,,,,,,006,001,2024-05-31_15h27.47.805,ps,2023.2.3,29.91209731973016,2024-05-31 15h28.00.914476 -0400,
mini_blocks/2d_single_mini_block_3.xlsx,"*Break*
Entering the 2D SIMULTANEOUS block
Rotation is Counter/Clockwise
Press <4> to continue",0,1,0,2D,None,120,False,False,None,obj1,100,220,output_pairs/2D_120/2D_120_obj_15_100_to_220deg.png,None,1098,comma,0,5,5,5,0,13,13,13,,,,,,,,,,,,,1315.4259713999927,,,,,,,,,,,,,,,,,,,,,,,,,,,,,,,,,,,,,,,,,,,,,,,,,,,1320.0164925999998,1320.0488518000057,1320.0488518000057,1322.0467532000039,3.0,['slash'],[0.7051874999888241],[None],1322.0469124999945,1322.0781114000129,1324.0448991000012,,,,,,,,,,,,,,,1315.378651600011,1315.4259713999927,1316.3552037999907,1316.3552037999907,1316.4547638999938,,,1320.0162967999931,comma,1,3.6390575999976136,None,,,,,,,,,,,,,,,,,,,,,,,,,,,,,,,,,,,,,,,,,,,,,,,,,,,,,,,,006,001,2024-05-31_15h27.47.805,ps,2023.2.3,29.91209731973016,2024-05-31 15h28.00.914476 -0400,
mini_blocks/2d_single_mini_block_3.xlsx,"*Break*
Entering the 2D SIMULTANEOUS block
Rotation is Counter/Clockwise
Press <4> to continue",0,1,0,2D,None,0,False,False,None,obj2,40,None,output_pairs/2D_0/2D_0_obj_2_40deg.png,None,1989,comma,0,5,5,5,0,14,14,14,,,,,,,,,,,,,1324.092653300002,,,,,,,,,,,,,,,,,,,,,,,,,,,,,,,,,,,,,,,,,,,,,,,,,,,1326.2792276999971,1326.3113348000043,1326.3113348000043,1328.281991900003,4.0,['rshift'],[0.3390897000208497],[None],1328.2821650000114,1328.311351500015,1330.2828387999907,1328.311351500015,1328.311351500015,,,,,,,,,,,,,1324.045173999999,1324.092653300002,1325.0161273000122,1325.0161273000122,1325.1218556000094,,,1326.2790131999936,comma,1,1.2347543999785557,None,,,,,,,,,,,,,,,,,,,,,,,,,,,,,,,,,,,,,,,,,,,,,,,,,,,,,,,,006,001,2024-05-31_15h27.47.805,ps,2023.2.3,29.91209731973016,2024-05-31 15h28.00.914476 -0400,
mini_blocks/2d_single_mini_block_3.xlsx,"*Break*
Entering the 2D SIMULTANEOUS block
Rotation is Counter/Clockwise
Press <4> to continue",0,1,0,2D,None,120,False,False,None,obj1,60,180,output_pairs/2D_120/2D_120_obj_11_60_to_180deg.png,None,1103,comma,0,5,5,5,0,15,15,15,,,,,,,,,,,,,1330.3306190000148,,,,,,,,,,,,,,,,,,,,,,,,,,,,,,,,,,,,,,,,,,,,,,,,,,,1335.3791785000067,1335.4114151000103,1335.4114151000103,1337.3823491999938,3.0,['slash'],[0.655547900008969],[None],1337.382503300003,1337.4119741000177,1339.3826965999906,1337.4119741000177,1337.4119741000177,,,,,,,,,,,,,1330.2830148999928,1330.3306190000148,1331.2783717999991,1331.2783717999991,1331.3448956999928,,,1335.3789640000032,comma,1,4.0839907999907155,None,,,,,,,,,,,,,,,,,,,,,,,,,,,,,,,,,,,,,,,,,,,,,,,,,,,,,,,,006,001,2024-05-31_15h27.47.805,ps,2023.2.3,29.91209731973016,2024-05-31 15h28.00.914476 -0400,
mini_blocks/2d_single_mini_block_3.xlsx,"*Break*
Entering the 2D SIMULTANEOUS block
Rotation is Counter/Clockwise
Press <4> to continue",0,1,0,,,,,,,,,,,,,,0,5,5,5,,,,,,,,,,,,,,,,,,,,,,,,,,,,,,,,,,,,,,,,,,,,,,,,,,,,,,,,,,,,,,,,,,,,,,,,,,,,,,,,,,1339.3890217000153,1339.411540000001,1339.411540000001,1347.3821906000085,4.0,['rshift'],[1.0230972999997903],[None],1347.3823296999908,1347.3823509000067,None,,,,,,,,,,,,,1347.4112556000182,1347.4112556000182,,,,,,,,,,,,,,,,,,,,,,,,,,,,,,,,,,,,,,,,,,,,,,,,,,,,,,006,001,2024-05-31_15h27.47.805,ps,2023.2.3,29.91209731973016,2024-05-31 15h28.00.914476 -0400,
mini_blocks/2d_wm_mini_block_1.xlsx,"*Break*
Entering the 2D WORKING MEMORY block
Rotation is Counter/Clockwise
Press <4> to continue
               ",1,0,0,2D,None,60,False,True,26,obj5,240,300,output_pairs/2D_60_WM/2D_60_WM_26_1_obj_5_240deg.png,output_pairs/2D_60_WM/2D_60_WM_26_2_obj_5_300deg.png,131,comma,0,6,6,6,,,,,0,0,0,0,,,,,,,,,1352.9546199000033,,,,,,,,,,,,,,,,,,,,,,,,,,,,,,1347.3824696000083,1347.4112556000182,1347.4112556000182,1352.8833421000163,rshift,5.44779100001324,None,1352.8954755000013,1352.9546199000033,1353.88271060001,1353.982668600016,1357.9161670000176,1357.9161670000176,1358.9219901000033,1358.8885911999969,1358.8885911999969,1361.1792980000027,period,0,2.274085799988825,None,1361.1796091000142,1361.211703500012,1361.211703500012,1363.1820847000054,1.0,['comma'],[0.9839644999883603],[None],1363.1823378000117,1363.211506199994,1365.1829725000134,1363.211506199994,1363.211506199994,,,,,,,,,,,,,,,,,,,,,,,,,,,,,,,,,,,,,,,,,,,,,,,,,,,,,,,,,,,,,,,,,,,,,,,,,,,,,,,,006,001,2024-05-31_15h27.47.805,ps,2023.2.3,29.91209731973016,2024-05-31 15h28.00.914476 -0400,
mini_blocks/2d_wm_mini_block_1.xlsx,"*Break*
Entering the 2D WORKING MEMORY block
Rotation is Counter/Clockwise
Press <4> to continue
               ",1,0,0,2D,None,180,False,True,7,obj1,140,320,output_pairs/2D_180_WM/2D_180_WM_07_1_obj_13_140deg.png,output_pairs/2D_180_WM/2D_180_WM_07_2_obj_13_320deg.png,707,comma,0,6,6,6,,,,,0,1,1,1,,,,,,,,,1365.259389999992,,,,,,,,,,,,,,,,,,,,,,,,,,,,,,,,,,,,,1365.1831730999984,1365.259389999992,1366.1888365999912,1366.2887058999913,1370.182818100002,1370.2162193999975,1371.182912499993,1371.182912499993,1371.182912499993,1372.9455637999927,comma,1,1.7481193999992684,None,1372.9457823999983,1372.9782682000077,1372.9782682000077,1374.9500717000046,3.0,['slash'],[0.6486922000185587],[None],1374.9502857000043,1374.9828407000168,1376.9494790000026,1374.9828407000168,1374.9828407000168,,,,,,,,,,,,,,,,,,,,,,,,,,,,,,,,,,,,,,,,,,,,,,,,,,,,,,,,,,,,,,,,,,,,,,,,,,,,,,,,006,001,2024-05-31_15h27.47.805,ps,2023.2.3,29.91209731973016,2024-05-31 15h28.00.914476 -0400,
mini_blocks/2d_wm_mini_block_1.xlsx,"*Break*
Entering the 2D WORKING MEMORY block
Rotation is Counter/Clockwise
Press <4> to continue
               ",1,0,0,2D,None,0,True,True,27,obj7,300,300,output_pairs/2D_0_M_WM/2D_0_M_WM_27_1_obj_7_300deg.png,output_pairs/2D_0_M_WM/2D_0_M_WM_27_2_obj_7_300deg.png,685,period,0,6,6,6,,,,,0,2,2,2,,,,,,,,,1376.9992095000052,,,,,,,,,,,,,,,,,,,,,,,,,,,,,,,,,,,,,1376.9496524000133,1376.9992095000052,1377.9451957000128,1378.0118693000113,1381.94951820001,1381.94951820001,1382.945505700016,1382.945505700016,1382.945505700016,1387.0460159000068,comma,0,4.072748299979139,None,1387.0462354000192,1387.0785704000155,1387.0785704000155,1389.0486869000015,3.0,['slash'],[0.6283629999961704],[None],1389.04889060001,1389.0781140000036,1391.0496678999916,1389.0781140000036,1389.0781140000036,,,,,,,,,,,,,,,,,,,,,,,,,,,,,,,,,,,,,,,,,,,,,,,,,,,,,,,,,,,,,,,,,,,,,,,,,,,,,,,,006,001,2024-05-31_15h27.47.805,ps,2023.2.3,29.91209731973016,2024-05-31 15h28.00.914476 -0400,
mini_blocks/2d_wm_mini_block_1.xlsx,"*Break*
Entering the 2D WORKING MEMORY block
Rotation is Counter/Clockwise
Press <4> to continue
               ",1,0,0,2D,None,120,True,True,5,obj8,300,60,output_pairs/2D_120_M_WM/2D_120_M_WM_05_1_obj_8_300deg.png,output_pairs/2D_120_M_WM/2D_120_M_WM_05_2_obj_8_60deg.png,242,period,0,6,6,6,,,,,0,3,3,3,,,,,,,,,1391.0991272999963,,,,,,,,,,,,,,,,,,,,,,,,,,,,,,,,,,,,,1391.0498723000055,1391.0991272999963,1392.0558776000107,1392.1222438999976,1396.0495551000058,1396.0829354000161,1397.055558699998,1397.055558699998,1397.055558699998,1402.7793386999983,comma,0,5.698106399999233,None,1402.7795528999995,1402.811658999999,1402.811658999999,1404.7825897000148,3.0,['slash'],[0.8234946000156924],[None],1404.7827568000066,1404.8116347000177,1406.789222899999,1404.8116347000177,1404.8116347000177,,,,,,,,,,,,,,,,,,,,,,,,,,,,,,,,,,,,,,,,,,,,,,,,,,,,,,,,,,,,,,,,,,,,,,,,,,,,,,,,006,001,2024-05-31_15h27.47.805,ps,2023.2.3,29.91209731973016,2024-05-31 15h28.00.914476 -0400,
mini_blocks/2d_wm_mini_block_1.xlsx,"*Break*
Entering the 2D WORKING MEMORY block
Rotation is Counter/Clockwise
Press <4> to continue
