condition_file,message_to_show,repN_wm,repN_single,repN_break,dimension,rot_type,angle,mirror,wm,pair_id,obj_id,orientation1,orientation2,image_path_1,image_path_2,marker_id,correctAns,block_loop_main.thisRepN,block_loop_main.thisTrialN,block_loop_main.thisN,block_loop_main.thisIndex,simu_trials_loop.thisRepN,simu_trials_loop.thisTrialN,simu_trials_loop.thisN,simu_trials_loop.thisIndex,wm_trials_loop.thisRepN,wm_trials_loop.thisTrialN,wm_trials_loop.thisN,wm_trials_loop.thisIndex,block_loop_3dd.thisRepN,block_loop_3dd.thisTrialN,block_loop_3dd.thisN,block_loop_3dd.thisIndex,first_3Dd_wm.thisRepN,first_3Dd_wm.thisTrialN,first_3Dd_wm.thisN,first_3Dd_wm.thisIndex,thisRow.t,notes,start.started,text_start.started,key_resp_start.started,start.stopped,key_resp_start.keys,key_resp_start.rt,key_resp_start.duration,instructions.started,key_resp_12.started,image_8.started,instructions.stopped,key_resp_12.keys,key_resp_12.rt,key_resp_12.duration,instructions_2.started,image_9.started,key_resp_20.started,instructions_2.stopped,key_resp_20.keys,key_resp_20.rt,key_resp_20.duration,instructions_3.started,image_10.started,key_resp_21.started,instructions_3.stopped,key_resp_21.keys,key_resp_21.rt,key_resp_21.duration,before_block_instr.started,text_13.started,key_resp_7.started,before_block_instr.stopped,key_resp_7.keys,key_resp_7.rt,key_resp_7.duration,routine_wm.started,text_4.started,img1.started,text_4.stopped,img1.stopped,text_5.started,text_5.stopped,img2.started,key_resp_3.started,routine_wm.stopped,key_resp_3.keys,key_resp_3.corr,key_resp_3.rt,key_resp_3.duration,vividness.started,image_vivid.started,key_resp_vivid_slider_control.started,image_vivid.stopped,key_resp_vivid_slider_control.stopped,vividness.stopped,vivid_response,key_resp_vivid_slider_control.keys,ITI.started,text_2.started,text_2.stopped,ITI.stopped,key_resp_vivid_slider_control.rt,key_resp_vivid_slider_control.duration,strat.started,image_strat.started,key_resp_strat_control.started,image_strat.stopped,key_resp_strat_control.stopped,strat.stopped,strategy_response,key_resp_strat_control.keys,key_resp_strat_control.rt,key_resp_strat_control.duration,break_2.started,break_2.stopped,key_resp_13.keys,routine_simu.started,text.started,image.started,key_resp.started,text.stopped,routine_simu.stopped,key_resp.keys,key_resp.corr,image.stopped,key_resp.stopped,key_resp.rt,key_resp.duration,text_17.started,key_resp_13.started,key_resp_13.rt,key_resp_13.duration,practice_3Dd_screen.started,image_11.started,key_resp_22.started,practice_3Dd_screen.stopped,key_resp_22.keys,key_resp_22.rt,key_resp_22.duration,practice_1_3Dd.started,image_12.started,key_resp_23.started,practice_1_3Dd.stopped,key_resp_23.keys,key_resp_23.rt,key_resp_23.duration,practice_2_3Dd.started,image_13.started,key_resp_24.started,practice_2_3Dd.stopped,key_resp_24.keys,key_resp_24.rt,key_resp_24.duration,wm_3Dd_screen.started,text_16.started,key_resp_11.started,wm_3Dd_screen.stopped,key_resp_11.keys,key_resp_11.rt,key_resp_11.duration,routine_3Dd_wm.started,text_8.started,image_6.started,text_8.stopped,image_6.stopped,text_12.started,text_12.stopped,image_7.started,key_resp_6.started,routine_3Dd_wm.stopped,key_resp_6.keys,key_resp_6.corr,key_resp_6.rt,key_resp_6.duration,end.started,text_22.started,key_resp_18.started,end.stopped,key_resp_18.keys,key_resp_18.rt,key_resp_18.duration,participant,session,date,expName,psychopyVersion,frameRate,expStart,
,,,,,,,,,,,,,,,,,,,,,,,,,,,,,,,,,,,,,,,,0.07454849997884594,0.07998619999852963,0.07998619999852963,2.6352817000006326,rshift,2.550937599997269,None,,,,,,,,,,,,,,,,,,,,,,,,,,,,,,,,,,,,,,,,,,,,,,,,,,,,,,,,,,,,,,,,,,,,,,,,,,,,,,,,,,,,,,,,,,,,,,,,,,,,,,,,,,,,,,,,,,,,,,,,,,,,,,,,,,,,,,,007,001,2024-05-31_17h01.35.946,ps,2023.2.3,30.01761734097313,2024-05-31 17h01.47.070035 -0400,
,,,,,,,,,,,,,,,,,,,,,,,,,,,,,,,,,,,,,,,,,,,,,,,2.6353005999990273,2.6679627999837976,2.6679627999837976,32.16963930000202,rshift,29.49948050000239,None,,,,,,,,,,,,,,,,,,,,,,,,,,,,,,,,,,,,,,,,,,,,,,,,,,,,,,,,,,,,,,,,,,,,,,,,,,,,,,,,,,,,,,,,,,,,,,,,,,,,,,,,,,,,,,,,,,,,,,,,,,,,,,,,007,001,2024-05-31_17h01.35.946,ps,2023.2.3,30.01761734097313,2024-05-31 17h01.47.070035 -0400,
,,,,,,,,,,,,,,,,,,,,,,,,,,,,,,,,,,,,,,,,,,,,,,,,,,,,,,32.1696571999928,32.20216679997975,32.20216679997975,37.668789699993795,rshift,5.4607732000004034,None,,,,,,,,,,,,,,,,,,,,,,,,,,,,,,,,,,,,,,,,,,,,,,,,,,,,,,,,,,,,,,,,,,,,,,,,,,,,,,,,,,,,,,,,,,,,,,,,,,,,,,,,,,,,,,,,,,,,,,,,,007,001,2024-05-31_17h01.35.946,ps,2023.2.3,30.01761734097313,2024-05-31 17h01.47.070035 -0400,
,,,,,,,,,,,,,,,,,,,,,,,,,,,,,,,,,,,,,,,,,,,,,,,,,,,,,,,,,,,,,37.66880939999828,37.70145269998466,37.70145269998466,47.47263569998904,rshift,9.745702799991705,None,,,,,,,,,,,,,,,,,,,,,,,,,,,,,,,,,,,,,,,,,,,,,,,,,,,,,,,,,,,,,,,,,,,,,,,,,,,,,,,,,,,,,,,,,,,,,,,,,,,,,,,,,,,,,,,,,,007,001,2024-05-31_17h01.35.946,ps,2023.2.3,30.01761734097313,2024-05-31 17h01.47.070035 -0400,
mini_blocks/2d_wm_mini_block_2.xlsx,"*Break*
Entering the 2D WORKING MEMORY block
Rotation is Counter/Clockwise
Press <4> to continue
               ",1,0,0,2D,None,180,True,True,6,obj1,100,280,output_pairs/2D_180_M_WM/2D_180_M_WM_06_1_obj_12_100deg.png,output_pairs/2D_180_M_WM/2D_180_M_WM_06_2_obj_12_280deg.png,447,period,0,0,0,0,,,,,0,0,0,0,,,,,,,,,50.899394899985055,,,,,,,,,,,,,,,,,,,,,,,,,,,,,,47.477917999989586,47.50538919999963,47.50538919999963,50.73616669999319,rshift,3.2301387000188697,None,50.749193199997535,50.899394899985055,51.74554089998128,51.901749699987704,55.768104199989466,55.768104199989466,56.767968400003156,56.767968400003156,56.767968400003156,60.369092199980514,period,1,3.567609600024298,None,60.36939919998986,60.40163269999903,60.40163269999903,62.401580799982185,62.401580799982185,62.37218569999095,None,None,62.37232279998716,62.401580799982185,64.42564659999334,64.3690290999948,,,,,,,,,,,,,,,,,,,,,,,,,,,,,,,,,,,,,,,,,,,,,,,,,,,,,,,,,,,,,,,,,,,,,,,,,,,,,,,,,007,001,2024-05-31_17h01.35.946,ps,2023.2.3,30.01761734097313,2024-05-31 17h01.47.070035 -0400,
mini_blocks/2d_wm_mini_block_2.xlsx,"*Break*
Entering the 2D WORKING MEMORY block
Rotation is Counter/Clockwise
Press <4> to continue
               ",1,0,0,2D,None,60,True,True,24,obj1,280,220,output_pairs/2D_60_M_WM/2D_60_M_WM_24_1_obj_14_280deg.png,output_pairs/2D_60_M_WM/2D_60_M_WM_24_2_obj_14_220deg.png,634,period,0,0,0,0,,,,,0,1,1,1,,,,,,,,,64.42564659999334,,,,,,,,,,,,,,,,,,,,,,,,,,,,,,,,,,,,,64.36920749998535,64.42564659999334,65.36850290000439,65.43505909998203,69.37279819999821,69.37279819999821,70.37288059998536,70.37288059998536,70.37288059998536,71.57948240000405,period,1,1.1790524999960326,None,71.57968120000442,71.61202040000353,71.61202040000353,,,73.60340329998871,3.0,['slash'],73.60364669997944,73.63498050000635,,75.60634729999583,[1.459494500013534],[None],,,,,,,,,,,,,,,,,,,,,,,,,,,,,,,,,,,,,,,,,,,,,,,,,,,,,,,,,,,,,,,,,,,,,,,,,,,,,,,007,001,2024-05-31_17h01.35.946,ps,2023.2.3,30.01761734097313,2024-05-31 17h01.47.070035 -0400,
mini_blocks/2d_wm_mini_block_2.xlsx,"*Break*
Entering the 2D WORKING MEMORY block
Rotation is Counter/Clockwise
Press <4> to continue
               ",1,0,0,2D,None,180,False,True,27,obj3,240,60,output_pairs/2D_180_WM/2D_180_WM_27_1_obj_3_240deg.png,output_pairs/2D_180_WM/2D_180_WM_27_2_obj_3_60deg.png,714,comma,0,0,0,0,,,,,0,2,2,2,,,,,,,,,75.66371679998701,,,,,,,,,,,,,,,,,,,,,,,,,,,,,,,,,,,,,75.60651419998612,75.66371679998701,76.60187379998388,76.66858450000291,80.60166670000763,80.60166670000763,81.60626149998279,81.60626149998279,81.60626149998279,83.86907469999278,comma,1,2.2495419000042602,None,83.8692872999818,83.90144459999283,83.90144459999283,85.9016050999926,85.9016050999926,85.87219009999535,2.0,['period'],85.87242699999479,85.9016050999926,,87.87313930000528,[1.7152874000021257],[None],,,,,,,,,,,,,,,,,,,,,,,,,,,,,,,,,,,,,,,,,,,,,,,,,,,,,,,,,,,,,,,,,,,,,,,,,,,,,,,007,001,2024-05-31_17h01.35.946,ps,2023.2.3,30.01761734097313,2024-05-31 17h01.47.070035 -0400,
mini_blocks/2d_wm_mini_block_2.xlsx,"*Break*
Entering the 2D WORKING MEMORY block
Rotation is Counter/Clockwise
Press <4> to continue
               ",1,0,0,2D,None,0,True,True,29,obj2,300,300,output_pairs/2D_0_M_WM/2D_0_M_WM_29_1_obj_2_300deg.png,output_pairs/2D_0_M_WM/2D_0_M_WM_29_2_obj_2_300deg.png,684,period,0,0,0,0,,,,,0,3,3,3,,,,,,,,,87.9207730999915,,,,,,,,,,,,,,,,,,,,,,,,,,,,,,,,,,,,,87.87331679998897,87.9207730999915,88.87309909999021,88.93542069999967,92.90175629997975,92.86841830000049,93.8730743000051,93.8730743000051,93.8730743000051,96.50229509998462,period,1,2.605779800011078,None,96.50268020000658,96.53476489998866,96.53476489998866,98.53504260000773,98.53504260000773,98.50549769998179,2.0,['period'],98.50566749999416,98.53504260000773,100.55795610000496,100.50244280000334,[1.4248952999769244],[None],,,,,,,,,,,,,,,,,,,,,,,,,,,,,,,,,,,,,,,,,,,,,,,,,,,,,,,,,,,,,,,,,,,,,,,,,,,,,,,007,001,2024-05-31_17h01.35.946,ps,2023.2.3,30.01761734097313,2024-05-31 17h01.47.070035 -0400,
mini_blocks/2d_wm_mini_block_2.xlsx,"*Break*
Entering the 2D WORKING MEMORY block
Rotation is Counter/Clockwise
Press <4> to continue
               ",1,0,0,2D,None,120,True,True,10,obj4,20,260,output_pairs/2D_120_M_WM/2D_120_M_WM_10_1_obj_4_20deg.png,output_pairs/2D_120_M_WM/2D_120_M_WM_10_2_obj_4_260deg.png,254,period,0,0,0,0,,,,,0,4,4,4,,,,,,,,,100.55795610000496,,,,,,,,,,,,,,,,,,,,,,,,,,,,,,,,,,,,,100.50266309999279,100.55795610000496,101.50192199999583,101.5686457999982,105.50628939998569,105.50628939998569,106.50633669999661,106.50633669999661,106.50633669999661,108.20692339999368,comma,0,1.6691110999963712,None,108.20711180000217,108.23961779999081,108.23961779999081,,,110.23694579998846,3.0,['slash'],110.23711499999627,110.26818680000724,,112.23989209998399,[1.7522826000058558],[None],,,,,,,,,,,,,,,,,,,,,,,,,,,,,,,,,,,,,,,,,,,,,,,,,,,,,,,,,,,,,,,,,,,,,,,,,,,,,,,007,001,2024-05-31_17h01.35.946,ps,2023.2.3,30.01761734097313,2024-05-31 17h01.47.070035 -0400,
mini_blocks/2d_wm_mini_block_2.xlsx,"*Break*
Entering the 2D WORKING MEMORY block
Rotation is Counter/Clockwise
Press <4> to continue
               ",1,0,0,2D,None,60,False,True,22,obj1,60,120,output_pairs/2D_60_WM/2D_60_WM_22_1_obj_13_60deg.png,output_pairs/2D_60_WM/2D_60_WM_22_2_obj_13_120deg.png,133,comma,0,0,0,0,,,,,0,5,5,5,,,,,,,,,112.29554749999079,,,,,,,,,,,,,,,,,,,,,,,,,,,,,,,,,,,,,112.24005849999958,112.29554749999079,113.21250130000408,113.3124497999961,117.23506289999932,117.23506289999932,118.23985230000108,118.20649609999964,118.20649609999964,119.77383259998169,comma,1,1.553760600014357,None,119.77402759998222,119.80657399998745,119.80657399998745,,,121.80368939999607,4.0,['rshift'],121.80384859998594,121.83513329998823,,123.80657019998762,[1.569318000023486],[None],,,,,,,,,,,,,,,,,,,,,,,,,,,,,,,,,,,,,,,,,,,,,,,,,,,,,,,,,,,,,,,,,,,,,,,,,,,,,,,007,001,2024-05-31_17h01.35.946,ps,2023.2.3,30.01761734097313,2024-05-31 17h01.47.070035 -0400,
mini_blocks/2d_wm_mini_block_2.xlsx,"*Break*
Entering the 2D WORKING MEMORY block
Rotation is Counter/Clockwise
Press <4> to continue
               ",1,0,0,2D,None,180,True,True,3,sm1,0,180,output_pairs/2D_180_M_WM/2D_180_M_WM_03_1_SM1_0deg.png,output_pairs/2D_180_M_WM/2D_180_M_WM_03_2_SM1_180deg.png,433,period,0,0,0,0,,,,,0,6,6,6,,,,,,,,,123.85354439998628,,,,,,,,,,,,,,,,,,,,,,,,,,,,,,,,,,,,,123.8067704999994,123.85354439998628,124.77921449998394,124.86867429999984,128.80202869998175,128.80202869998175,129.80207469998277,129.80207469998277,129.80207469998277,132.33600589999696,comma,0,2.517380300007062,None,132.33621439998387,132.36829270000453,132.36829270000453,,,134.34147739998298,2.0,['period'],134.34163660000195,134.37308289998327,,136.3688930000062,[1.0552658000087831],[None],,,,,,,,,,,,,,,,,,,,,,,,,,,,,,,,,,,,,,,,,,,,,,,,,,,,,,,,,,,,,,,,,,,,,,,,,,,,,,,007,001,2024-05-31_17h01.35.946,ps,2023.2.3,30.01761734097313,2024-05-31 17h01.47.070035 -0400,
mini_blocks/2d_wm_mini_block_2.xlsx,"*Break*
Entering the 2D WORKING MEMORY block
Rotation is Counter/Clockwise
Press <4> to continue
               ",1,0,0,2D,None,180,False,True,30,obj6,160,340,output_pairs/2D_180_WM/2D_180_WM_30_1_obj_6_160deg.png,output_pairs/2D_180_WM/2D_180_WM_30_2_obj_6_340deg.png,711,comma,0,0,0,0,,,,,0,7,7,7,,,,,,,,,136.42454989999533,,,,,,,,,,,,,,,,,,,,,,,,,,,,,,,,,,,,,136.3691726999823,136.42454989999533,137.33537309998064,137.4397009999957,141.33978539999225,141.33978539999225,142.34594860000652,142.34594860000652,142.34594860000652,144.73623929999303,comma,1,2.3820504999894183,None,144.73647059997893,144.76855629999773,144.76855629999773,,,146.74150449997978,None,None,146.74158840000746,146.77320399999735,,148.74598489998607,,,,,,,,,,,,,,,,,,,,,,,,,,,,,,,,,,,,,,,,,,,,,,,,,,,,,,,,,,,,,,,,,,,,,,,,,,,,,,,,,007,001,2024-05-31_17h01.35.946,ps,2023.2.3,30.01761734097313,2024-05-31 17h01.47.070035 -0400,
mini_blocks/2d_wm_mini_block_2.xlsx,"*Break*
Entering the 2D WORKING MEMORY block
Rotation is Counter/Clockwise
Press <4> to continue
               ",1,0,0,2D,None,0,True,True,31,sm3,160,160,output_pairs/2D_0_M_WM/2D_0_M_WM_31_1_SM3_160deg.png,output_pairs/2D_0_M_WM/2D_0_M_WM_31_2_SM3_160deg.png,673,period,0,0,0,0,,,,,0,8,8,8,,,,,,,,,148.80976229999214,,,,,,,,,,,,,,,,,,,,,,,,,,,,,,,,,,,,,148.74617649998982,148.80976229999214,149.7355826999992,149.83551259999513,153.73555369998212,153.73555369998212,154.73990719998255,154.73990719998255,154.73990719998255,157.2029249999905,comma,0,2.4598793999757618,None,157.20313009998063,157.23518940000213,157.23518940000213,159.23535750000156,159.23535750000156,159.20673869998427,2.0,['period'],159.20688700000755,159.23535750000156,,161.20680909999646,[0.8208581999933813],[None],,,,,,,,,,,,,,,,,,,,,,,,,,,,,,,,,,,,,,,,,,,,,,,,,,,,,,,,,,,,,,,,,,,,,,,,,,,,,,,007,001,2024-05-31_17h01.35.946,ps,2023.2.3,30.01761734097313,2024-05-31 17h01.47.070035 -0400,
mini_blocks/2d_wm_mini_block_2.xlsx,"*Break*
Entering the 2D WORKING MEMORY block
Rotation is Counter/Clockwise
Press <4> to continue
               ",1,0,0,2D,None,120,False,True,29,obj1,60,180,output_pairs/2D_120_WM/2D_120_WM_29_1_obj_13_60deg.png,output_pairs/2D_120_WM/2D_120_WM_29_2_obj_13_180deg.png,166,comma,0,0,0,0,,,,,0,9,9,9,,,,,,,,,161.26476069999626,,,,,,,,,,,,,,,,,,,,,,,,,,,,,,,,,,,,,161.20698550000088,161.26476069999626,162.20229929999914,162.27947239999776,166.202200300002,166.202200300002,167.20230420000735,167.23557279998204,167.23557279998204,168.6467280999932,comma,1,1.3805466999765486,None,168.6469228999922,168.67913209999097,168.67913209999097,,,170.6705229000072,3.0,['slash'],170.67068320000544,170.70202599998447,,172.6734276000061,[1.0405806999769993],[None],,,,,,,,,,,,,,,,,,,,,,,,,,,,,,,,,,,,,,,,,,,,,,,,,,,,,,,,,,,,,,,,,,,,,,,,,,,,,,,007,001,2024-05-31_17h01.35.946,ps,2023.2.3,30.01761734097313,2024-05-31 17h01.47.070035 -0400,
mini_blocks/2d_wm_mini_block_2.xlsx,"*Break*
Entering the 2D WORKING MEMORY block
Rotation is Counter/Clockwise
Press <4> to continue
               ",1,0,0,2D,None,60,False,True,6,obj1,80,140,output_pairs/2D_60_WM/2D_60_WM_06_1_obj_15_80deg.png,output_pairs/2D_60_WM/2D_60_WM_06_2_obj_15_140deg.png,137,comma,0,0,0,0,,,,,0,10,10,10,,,,,,,,,172.72097309998935,,,,,,,,,,,,,,,,,,,,,,,,,,,,,,,,,,,,,172.67359570000554,172.72097309998935,173.67908999999054,173.7461384999915,177.70227629999863,177.6689284000022,178.66896650000126,178.66896650000126,178.66896650000126,180.1695531999867,comma,1,1.4824429999862332,None,180.16975949998596,180.20192099999986,180.20192099999986,182.20201439998345,182.20201439998345,182.17243989999406,3.0,['slash'],182.17259109998122,182.20201439998345,,184.17349299998023,[1.1824117999931332],[None],,,,,,,,,,,,,,,,,,,,,,,,,,,,,,,,,,,,,,,,,,,,,,,,,,,,,,,,,,,,,,,,,,,,,,,,,,,,,,,007,001,2024-05-31_17h01.35.946,ps,2023.2.3,30.01761734097313,2024-05-31 17h01.47.070035 -0400,
mini_blocks/2d_wm_mini_block_2.xlsx,"*Break*
Entering the 2D WORKING MEMORY block
Rotation is Counter/Clockwise
Press <4> to continue
               ",1,0,0,2D,None,0,False,True,1,sm1,320,320,output_pairs/2D_0_WM/2D_0_WM_01_1_SM1_320deg.png,output_pairs/2D_0_WM/2D_0_WM_01_2_SM1_320deg.png,218,comma,0,0,0,0,,,,,0,11,11,11,,,,,,,,,184.23018719998072,,,,,,,,,,,,,,,,,,,,,,,,,,,,,,,,,,,,,184.17367230000673,184.23018719998072,185.17950470000505,185.2458590999886,189.20252639998216,189.17328649997944,190.17935259998194,190.17935259998194,190.17935259998194,191.1031269999803,comma,1,0.9169262000068557,None,191.10334579998744,191.1356206999917,191.1356206999917,,,193.10833889999776,4.0,['rshift'],193.1085250999895,193.1400891999947,,195.13581819998217,[0.8638914999901317],[None],,,,,,,,,,,,,,,,,,,,,,,,,,,,,,,,,,,,,,,,,,,,,,,,,,,,,,,,,,,,,,,,,,,,,,,,,,,,,,,007,001,2024-05-31_17h01.35.946,ps,2023.2.3,30.01761734097313,2024-05-31 17h01.47.070035 -0400,
mini_blocks/2d_wm_mini_block_2.xlsx,"*Break*
Entering the 2D WORKING MEMORY block
Rotation is Counter/Clockwise
Press <4> to continue
               ",1,0,0,2D,None,0,False,True,26,obj4,180,180,output_pairs/2D_0_WM/2D_0_WM_26_1_obj_4_180deg.png,output_pairs/2D_0_WM/2D_0_WM_26_2_obj_4_180deg.png,208,comma,0,0,0,0,,,,,0,12,12,12,,,,,,,,,195.1829005999898,,,,,,,,,,,,,,,,,,,,,,,,,,,,,,,,,,,,,195.13607239999692,195.1829005999898,196.10253810000722,196.20238729999983,200.10212639998645,200.13554399998975,201.13557680000667,201.13557680000667,201.13557680000667,202.16948260000208,comma,1,1.0002669999958016,None,202.16968249998172,202.20207909998135,202.20207909998135,,,204.17515110000386,4.0,['rshift'],204.17535760000465,204.2067975999962,,206.17339849998825,[0.7497777999960817],[None],,,,,,,,,,,,,,,,,,,,,,,,,,,,,,,,,,,,,,,,,,,,,,,,,,,,,,,,,,,,,,,,,,,,,,,,,,,,,,,007,001,2024-05-31_17h01.35.946,ps,2023.2.3,30.01761734097313,2024-05-31 17h01.47.070035 -0400,
mini_blocks/2d_wm_mini_block_2.xlsx,"*Break*
Entering the 2D WORKING MEMORY block
Rotation is Counter/Clockwise
Press <4> to continue
               ",1,0,0,2D,None,120,False,True,9,obj6,260,20,output_pairs/2D_120_WM/2D_120_WM_09_1_obj_6_260deg.png,output_pairs/2D_120_WM/2D_120_WM_09_2_obj_6_20deg.png,175,comma,0,0,0,0,,,,,0,13,13,13,,,,,,,,,206.22040419999394,,,,,,,,,,,,,,,,,,,,,,,,,,,,,,,,,,,,,206.1735919000057,206.22040419999394,207.1688848999911,207.23580490000313,211.16886119998526,211.16886119998526,212.16907459998038,212.16907459998038,212.16907459998038,213.24075529997936,comma,1,1.0545710000151303,None,213.24095320000197,213.27348219999112,213.27348219999112,,,215.27073530000052,None,None,215.27082909998717,215.30197639999096,,217.27355179999722,,,,,,,,,,,,,,,,,,,,,,,,,,,,,,,,,,,,,,,,,,,,,,,,,,,,,,,,,,,,,,,,,,,,,,,,,,,,,,,,,007,001,2024-05-31_17h01.35.946,ps,2023.2.3,30.01761734097313,2024-05-31 17h01.47.070035 -0400,
mini_blocks/2d_wm_mini_block_2.xlsx,"*Break*
Entering the 2D WORKING MEMORY block
Rotation is Counter/Clockwise
Press <4> to continue
               ",1,0,0,2D,None,120,True,True,20,obj1,20,260,output_pairs/2D_120_M_WM/2D_120_M_WM_20_1_obj_1_20deg.png,output_pairs/2D_120_M_WM/2D_120_M_WM_20_2_obj_1_260deg.png,231,period,0,0,0,0,,,,,0,14,14,14,,,,,,,,,217.33025649999036,,,,,,,,,,,,,,,,,,,,,,,,,,,,,,,,,,,,,217.27372989998548,217.33025649999036,218.24644610000541,218.340083099989,222.26884569998947,222.26884569998947,223.27353829998174,223.24016210000264,223.24016210000264,225.37414169998374,comma,0,2.112275999999838,None,225.37432899998385,225.4068077999982,225.4068077999982,,,227.40425309998682,2.0,['period'],227.40442229999462,227.43535739998333,,229.40713139998843,[0.7929217999917455],[None],,,,,,,,,,,,,,,,,,,,,,,,,,,,,,,,,,,,,,,,,,,,,,,,,,,,,,,,,,,,,,,,,,,,,,,,,,,,,,,007,001,2024-05-31_17h01.35.946,ps,2023.2.3,30.01761734097313,2024-05-31 17h01.47.070035 -0400,
mini_blocks/2d_wm_mini_block_2.xlsx,"*Break*
Entering the 2D WORKING MEMORY block
Rotation is Counter/Clockwise
Press <4> to continue
               ",1,0,0,2D,None,60,True,True,11,obj5,120,180,output_pairs/2D_60_M_WM/2D_60_M_WM_11_1_obj_5_120deg.png,output_pairs/2D_60_M_WM/2D_60_M_WM_11_2_obj_5_180deg.png,611,period,0,0,0,0,,,,,0,15,15,15,,,,,,,,,229.46394230000442,,,,,,,,,,,,,,,,,,,,,,,,,,,,,,,,,,,,,229.40731710000546,229.46394230000442,230.3794077000057,230.47933360000025,234.4068466000026,234.36919689999195,235.37956750000012,235.37956750000012,235.37956750000012,237.00284400000237,period,1,1.612035600002855,None,237.0030451999919,237.03557750000618,237.03557750000618,239.0401789000025,239.0401789000025,239.0063726999797,2.0,['period'],239.00652319999062,239.0401789000025,,241.0068559999927,[1.6051223000104073],[None],,,,,,,,,,,,,,,,,,,,,,,,,,,,,,,,,,,,,,,,,,,,,,,,,,,,,,,,,,,,,,,,,,,,,,,,,,,,,,,007,001,2024-05-31_17h01.35.946,ps,2023.2.3,30.01761734097313,2024-05-31 17h01.47.070035 -0400,
mini_blocks/2d_wm_mini_block_2.xlsx,"*Break*
Entering the 2D WORKING MEMORY block
Rotation is Counter/Clockwise
Press <4> to continue
               ",1,0,0,,,,,,,,,,,,,,0,0,0,0,,,,,,,,,,,,,,,,,,,,,,,,,,,,,,,,,,,,,,,,,,,,,,,,,,,,,,,,,,,,,,,,,,,,,,,,,,,,,,,,,,241.00693339999998,241.03588340000715,241.03588340000715,249.03546349998214,249.03546349998214,249.00617419998161,4.0,['rshift'],[5.204873399983626],[None],249.00642890000017,249.00645179999992,None,,,,,,,,,,,,,,,,,,,,,,,,,,,,,,,,,,,,,,,,,,,,,,,,,,,,,,,,,,,,,,,,,,007,001,2024-05-31_17h01.35.946,ps,2023.2.3,30.01761734097313,2024-05-31 17h01.47.070035 -0400,
mini_blocks/3dp_wm_mini_block_3.xlsx,"*Break*
Entering the 3D WORKING MEMORY block
Rotation is Counter/Clockwise
Press <4> to continue",1,0,0,3D,p,60,False,True,6,sm1,280,340,output_pairs/3Dp_60_WM/3Dp_60_WM_06_1_sm_1_280deg.png,output_pairs/3Dp_60_WM/3Dp_60_WM_06_2_sm_1_340deg.png,404,comma,0,1,1,1,,,,,0,0,0,0,,,,,,,,,250.50579799999832,,,,,,,,,,,,,,,,,,,,,,,,,,,,,,249.006650299998,249.03546349998214,249.03546349998214,250.43665839999449,rshift,1.3888800000131596,None,250.44932399998652,250.50579799999832,251.44046280000475,251.5403573999938,255.46891150000738,255.46891150000738,256.46916049998254,256.46916049998254,256.46916049998254,258.040983599989,period,0,1.5542999999888707,None,258.0413697999902,258.0694213999959,258.0694213999959,260.06908059999114,260.06908059999114,260.03965479999897,2.0,['period'],260.03991180000594,260.06908059999114,262.0833846000023,262.03634309998597,[1.2021306999959052],[None],,,,,,,,,,,,,,,,,,,,,,,,,,,,,,,,,,,,,,,,,,,,,,,,,,,,,,,,,,,,,,,,,,,,,,,,,,,,,,,007,001,2024-05-31_17h01.35.946,ps,2023.2.3,30.01761734097313,2024-05-31 17h01.47.070035 -0400,
mini_blocks/3dp_wm_mini_block_3.xlsx,"*Break*
Entering the 3D WORKING MEMORY block
Rotation is Counter/Clockwise
Press <4> to continue",1,0,0,3D,p,120,False,True,16,sm4,320,80,output_pairs/3Dp_120_WM/3Dp_120_WM_16_1_sm_4_320deg.png,output_pairs/3Dp_120_WM/3Dp_120_WM_16_2_sm_4_80deg.png,332,comma,0,1,1,1,,,,,0,1,1,1,,,,,,,,,262.0833846000023,,,,,,,,,,,,,,,,,,,,,,,,,,,,,,,,,,,,,262.0365217999788,262.0833846000023,263.04062660000636,263.1070938000048,267.0360275999992,267.06932139999117,268.0693543999805,268.0693543999805,268.0693543999805,271.10333489999175,period,0,3.0114898000028916,None,271.1035394000064,271.13560609999695,271.13560609999695,273.1360017999832,273.1360017999832,273.10660749999806,2.0,['period'],273.10675370000536,273.1360017999832,275.14935089999926,275.10324719999335,[1.895885999983875],[None],,,,,,,,,,,,,,,,,,,,,,,,,,,,,,,,,,,,,,,,,,,,,,,,,,,,,,,,,,,,,,,,,,,,,,,,,,,,,,,007,001,2024-05-31_17h01.35.946,ps,2023.2.3,30.01761734097313,2024-05-31 17h01.47.070035 -0400,
mini_blocks/3dp_wm_mini_block_3.xlsx,"*Break*
Entering the 3D WORKING MEMORY block
Rotation is Counter/Clockwise
Press <4> to continue",1,0,0,3D,p,120,True,True,24,obj1,280,160,output_pairs/3Dp_120_M_WM/3Dp_120_M_WM_24_1_obj_14_280deg.png,output_pairs/3Dp_120_M_WM/3Dp_120_M_WM_24_2_obj_14_160deg.png,654,period,0,1,1,1,,,,,0,2,2,2,,,,,,,,,275.14935089999926,,,,,,,,,,,,,,,,,,,,,,,,,,,,,,,,,,,,,275.10344279999845,275.14935089999926,276.11290909998934,276.1797427999845,280.13569689998985,280.13569689998985,281.1404704999877,281.1070999999938,281.1070999999938,283.6366879999987,period,1,2.5246229999756906,None,283.63690089999,283.66907879998325,283.66907879998325,285.66919270000653,285.66919270000653,285.6397667999845,None,None,285.63985829998273,285.66919270000653,,287.64636759998393,,,,,,,,,,,,,,,,,,,,,,,,,,,,,,,,,,,,,,,,,,,,,,,,,,,,,,,,,,,,,,,,,,,,,,,,,,,,,,,,,007,001,2024-05-31_17h01.35.946,ps,2023.2.3,30.01761734097313,2024-05-31 17h01.47.070035 -0400,
mini_blocks/3dp_wm_mini_block_3.xlsx,"*Break*
Entering the 3D WORKING MEMORY block
Rotation is Counter/Clockwise
Press <4> to continue",1,0,0,3D,p,0,False,True,16,obj1,40,40,output_pairs/3Dp_0_WM/3Dp_0_WM_16_1_obj_1_40deg.png,output_pairs/3Dp_0_WM/3Dp_0_WM_16_2_obj_1_40deg.png,127,comma,0,1,1,1,,,,,0,3,3,3,,,,,,,,,287.7114391000068,,,,,,,,,,,,,,,,,,,,,,,,,,,,,,,,,,,,,287.6465433999838,287.7114391000068,288.64035299999523,288.73624359999667,292.6403766000003,292.6403766000003,293.6404943999951,293.6404943999951,293.6404943999951,295.43631469999673,comma,1,1.7918353999848478,None,295.4365048999898,295.46893479998107,295.46893479998107,297.4692045999982,297.4692045999982,297.4397270999907,4.0,['rshift'],297.43987959998776,297.4692045999982,,299.4406892999832,[1.562486600014381],[None],,,,,,,,,,,,,,,,,,,,,,,,,,,,,,,,,,,,,,,,,,,,,,,,,,,,,,,,,,,,,,,,,,,,,,,,,,,,,,,007,001,2024-05-31_17h01.35.946,ps,2023.2.3,30.01761734097313,2024-05-31 17h01.47.070035 -0400,
mini_blocks/3dp_wm_mini_block_3.xlsx,"*Break*
Entering the 3D WORKING MEMORY block
Rotation is Counter/Clockwise
Press <4> to continue",1,0,0,3D,p,60,False,True,17,obj4,180,120,output_pairs/3Dp_60_WM/3Dp_60_WM_17_1_obj_4_180deg.png,output_pairs/3Dp_60_WM/3Dp_60_WM_17_2_obj_4_120deg.png,392,comma,0,1,1,1,,,,,0,4,4,4,,,,,,,,,299.4962148999912,,,,,,,,,,,,,,,,,,,,,,,,,,,,,,,,,,,,,299.44086619999143,299.4962148999912,300.44676510000136,300.51343369999086,304.47387549999985,304.4405228999967,305.4405710999854,305.4405710999854,305.4405710999854,307.2702093999833,comma,1,1.7994733999948949,None,307.27042789998814,307.3024011999951,307.3024011999951,309.3026319000055,309.3026319000055,309.2730767999892,3.0,['slash'],309.27323890000116,309.3026319000055,,311.27418899998884,[1.161850999982562],[None],,,,,,,,,,,,,,,,,,,,,,,,,,,,,,,,,,,,,,,,,,,,,,,,,,,,,,,,,,,,,,,,,,,,,,,,,,,,,,,007,001,2024-05-31_17h01.35.946,ps,2023.2.3,30.01761734097313,2024-05-31 17h01.47.070035 -0400,
mini_blocks/3dp_wm_mini_block_3.xlsx,"*Break*
Entering the 3D WORKING MEMORY block
Rotation is Counter/Clockwise
Press <4> to continue",1,0,0,3D,p,0,True,True,21,obj1,180,180,output_pairs/3Dp_0_M_WM/3Dp_0_M_WM_21_1_obj_10_180deg.png,output_pairs/3Dp_0_M_WM/3Dp_0_M_WM_21_2_obj_10_180deg.png,535,period,0,1,1,1,,,,,0,5,5,5,,,,,,,,,311.32991159998346,,,,,,,,,,,,,,,,,,,,,,,,,,,,,,,,,,,,,311.2743671000062,311.32991159998346,312.2739716999931,312.3406270999985,316.3028047999833,316.3028047999833,317.3073216000048,317.2739929999807,317.2739929999807,318.7747424999834,comma,0,1.486130500008585,None,318.7749911999854,318.8073325000005,318.8073325000005,,,320.8042126999935,2.0,"['period', 'period']",320.80437719999463,320.8359024999954,,322.80745910000405,"[1.2811398999765515, 1.6556094999832567]","[None, None]",,,,,,,,,,,,,,,,,,,,,,,,,,,,,,,,,,,,,,,,,,,,,,,,,,,,,,,,,,,,,,,,,,,,,,,,,,,,,,,007,001,2024-05-31_17h01.35.946,ps,2023.2.3,30.01761734097313,2024-05-31 17h01.47.070035 -0400,
mini_blocks/3dp_wm_mini_block_3.xlsx,"*Break*
Entering the 3D WORKING MEMORY block
Rotation is Counter/Clockwise
Press <4> to continue",1,0,0,3D,p,120,False,True,7,obj7,300,60,output_pairs/3Dp_120_WM/3Dp_120_WM_07_1_obj_7_300deg.png,output_pairs/3Dp_120_WM/3Dp_120_WM_07_2_obj_7_60deg.png,350,comma,0,1,1,1,,,,,0,6,6,6,,,,,,,,,322.8531955999788,,,,,,,,,,,,,,,,,,,,,,,,,,,,,,,,,,,,,322.8076444999897,322.8531955999788,323.77978389998316,323.87982509998255,327.8071996999788,327.8071996999788,328.83625150000444,328.8029164999898,328.8029164999898,330.8368047999975,period,0,2.0053361000027508,None,330.8370393999794,330.8692792999791,330.8692792999791,332.869277299993,332.869277299993,332.83981459998176,3.0,['slash'],332.8399662000011,332.869277299993,,334.8469030999986,[1.010409599984996],[None],,,,,,,,,,,,,,,,,,,,,,,,,,,,,,,,,,,,,,,,,,,,,,,,,,,,,,,,,,,,,,,,,,,,,,,,,,,,,,,007,001,2024-05-31_17h01.35.946,ps,2023.2.3,30.01761734097313,2024-05-31 17h01.47.070035 -0400,
mini_blocks/3dp_wm_mini_block_3.xlsx,"*Break*
Entering the 3D WORKING MEMORY block
Rotation is Counter/Clockwise
Press <4> to continue",1,0,0,3D,p,60,True,True,14,obj4,0,300,output_pairs/3Dp_60_M_WM/3Dp_60_M_WM_14_1_obj_4_0deg.png,output_pairs/3Dp_60_M_WM/3Dp_60_M_WM_14_2_obj_4_300deg.png,294,period,0,1,1,1,,,,,0,7,7,7,,,,,,,,,334.9102711000014,,,,,,,,,,,,,,,,,,,,,,,,,,,,,,,,,,,,,334.8470764999802,334.9102711000014,335.8362487999839,335.93633430000045,339.83594879999873,339.86945739999646,340.87406149998424,340.8406294999877,340.8406294999877,342.436463799997,period,1,1.5917159999953583,None,342.4366604999814,342.4694873999979,342.4694873999979,344.47409519998473,344.47409519998473,344.44035980000626,2.0,['period'],344.4405052999791,344.47409519998473,,346.46967479999876,[1.0268680999870412],[None],,,,,,,,,,,,,,,,,,,,,,,,,,,,,,,,,,,,,,,,,,,,,,,,,,,,,,,,,,,,,,,,,,,,,,,,,,,,,,,007,001,2024-05-31_17h01.35.946,ps,2023.2.3,30.01761734097313,2024-05-31 17h01.47.070035 -0400,
mini_blocks/3dp_wm_mini_block_3.xlsx,"*Break*
Entering the 3D WORKING MEMORY block
Rotation is Counter/Clockwise
Press <4> to continue",1,0,0,3D,p,0,True,True,27,obj5,180,180,output_pairs/3Dp_0_M_WM/3Dp_0_M_WM_27_1_obj_5_180deg.png,output_pairs/3Dp_0_M_WM/3Dp_0_M_WM_27_2_obj_5_180deg.png,516,period,0,1,1,1,,,,,0,8,8,8,,,,,,,,,346.52485240000533,,,,,,,,,,,,,,,,,,,,,,,,,,,,,,,,,,,,,346.46996409998974,346.52485240000533,347.4406273000059,347.53631389999646,351.4406589999853,351.4406589999853,352.4468419000041,352.4468419000041,352.4468419000041,355.10376329999417,period,1,2.6327479999745265,None,355.1039712000056,355.13607129998854,355.13607129998854,357.13616049999837,357.13616049999837,357.1081644000078,2.0,None,357.10824189998675,357.13616049999837,359.158595099987,359.1035766999994,,,,,,,,,,,,,,,,,,,,,,,,,,,,,,,,,,,,,,,,,,,,,,,,,,,,,,,,,,,,,,,,,,,,,,,,,,,,,,,,,007,001,2024-05-31_17h01.35.946,ps,2023.2.3,30.01761734097313,2024-05-31 17h01.47.070035 -0400,
mini_blocks/3dp_wm_mini_block_3.xlsx,"*Break*
Entering the 3D WORKING MEMORY block
Rotation is Counter/Clockwise
Press <4> to continue",1,0,0,3D,p,60,True,True,23,obj1,220,280,output_pairs/3Dp_60_M_WM/3Dp_60_M_WM_23_1_obj_12_220deg.png,output_pairs/3Dp_60_M_WM/3Dp_60_M_WM_23_2_obj_12_280deg.png,298,period,0,1,1,1,,,,,0,9,9,9,,,,,,,,,359.158595099987,,,,,,,,,,,,,,,,,,,,,,,,,,,,,,,,,,,,,359.103847499995,359.158595099987,360.10301329998765,360.16973930000677,364.1027178999793,364.13619389999076,365.13625389998197,365.13625389998197,365.13625389998197,367.54736589998356,period,1,2.383281699992949,None,367.54757530000643,367.5799963999889,367.5799963999889,,,369.57111679998343,None,None,369.57120569999097,369.60291190000135,,371.57426490000216,,,,,,,,,,,,,,,,,,,,,,,,,,,,,,,,,,,,,,,,,,,,,,,,,,,,,,,,,,,,,,,,,,,,,,,,,,,,,,,,,007,001,2024-05-31_17h01.35.946,ps,2023.2.3,30.01761734097313,2024-05-31 17h01.47.070035 -0400,
mini_blocks/3dp_wm_mini_block_3.xlsx,"*Break*
Entering the 3D WORKING MEMORY block
Rotation is Counter/Clockwise
Press <4> to continue",1,0,0,3D,p,120,True,True,14,sm2,340,100,output_pairs/3Dp_120_M_WM/3Dp_120_M_WM_14_1_sm_2_340deg.png,output_pairs/3Dp_120_M_WM/3Dp_120_M_WM_14_2_sm_2_100deg.png,669,period,0,1,1,1,,,,,0,10,10,10,,,,,,,,,371.6352238999971,,,,,,,,,,,,,,,,,,,,,,,,,,,,,,,,,,,,,371.57456999999704,371.6352238999971,372.56972889997996,372.6364786000049,376.569579300005,376.569579300005,377.57415189998574,377.57415189998574,377.57415189998574,380.6704729000048,period,1,3.0660068999859504,None,380.67067829999723,380.70279710000614,380.70279710000614,,,382.67598759999964,2.0,['period'],382.67614460000186,382.70747949997894,,384.7075506999972,[1.664891299995361],[None],,,,,,,,,,,,,,,,,,,,,,,,,,,,,,,,,,,,,,,,,,,,,,,,,,,,,,,,,,,,,,,,,,,,,,,,,,,,,,,007,001,2024-05-31_17h01.35.946,ps,2023.2.3,30.01761734097313,2024-05-31 17h01.47.070035 -0400,
mini_blocks/3dp_wm_mini_block_3.xlsx,"*Break*
Entering the 3D WORKING MEMORY block
Rotation is Counter/Clockwise
Press <4> to continue",1,0,0,3D,p,0,False,True,30,obj1,80,80,output_pairs/3Dp_0_WM/3Dp_0_WM_30_1_obj_12_80deg.png,output_pairs/3Dp_0_WM/3Dp_0_WM_30_2_obj_12_80deg.png,111,comma,0,1,1,1,,,,,0,11,11,11,,,,,,,,,384.7645566999854,,,,,,,,,,,,,,,,,,,,,,,,,,,,,,,,,,,,,384.7077222999942,384.7645566999854,385.669851499988,385.770025899983,389.6697966000065,389.6697966000065,390.6742285999935,390.6742285999935,390.6742285999935,391.54744170000777,comma,1,0.8530960999778472,None,391.54763319998165,391.5801317000005,391.5801317000005,,,393.57121199998073,3.0,['slash'],393.5713696999883,393.6030011999828,,395.57011440000497,[1.090914200001862],[None],,,,,,,,,,,,,,,,,,,,,,,,,,,,,,,,,,,,,,,,,,,,,,,,,,,,,,,,,,,,,,,,,,,,,,,,,,,,,,,007,001,2024-05-31_17h01.35.946,ps,2023.2.3,30.01761734097313,2024-05-31 17h01.47.070035 -0400,
mini_blocks/3dp_wm_mini_block_3.xlsx,"*Break*
Entering the 3D WORKING MEMORY block
Rotation is Counter/Clockwise
Press <4> to continue",1,0,0,3D,p,180,False,True,13,sm2,120,300,output_pairs/3Dp_180_WM/3Dp_60_WM_13_1_sm_2_120deg.png,output_pairs/3Dp_180_WM/3Dp_60_WM_13_2_sm_2_300deg.png,487,comma,0,1,1,1,,,,,0,12,12,12,,,,,,,,,395.6274734000035,,,,,,,,,,,,,,,,,,,,,,,,,,,,,,,,,,,,,395.57034189999104,395.6274734000035,396.5470752999827,396.636440799979,400.56954699999187,400.56954699999187,401.56949559997884,401.56949559997884,401.56949559997884,403.04148769998574,period,0,1.4475108000042383,None,403.04167760000564,403.0741905999894,403.0741905999894,,,405.0713502999861,3.0,['slash'],405.0715186999878,405.1029089000076,,407.06964669999434,[1.7893617000081576],[None],,,,,,,,,,,,,,,,,,,,,,,,,,,,,,,,,,,,,,,,,,,,,,,,,,,,,,,,,,,,,,,,,,,,,,,,,,,,,,,007,001,2024-05-31_17h01.35.946,ps,2023.2.3,30.01761734097313,2024-05-31 17h01.47.070035 -0400,
mini_blocks/3dp_wm_mini_block_3.xlsx,"*Break*
Entering the 3D WORKING MEMORY block
Rotation is Counter/Clockwise
Press <4> to continue",1,0,0,3D,p,180,True,True,31,obj8,160,340,output_pairs/3Dp_180_M_WM/3Dp_180_M_WM_31_1_obj_8_160deg.png,output_pairs/3Dp_180_M_WM/3Dp_180_M_WM_31_2_obj_8_340deg.png,56,period,0,1,1,1,,,,,0,13,13,13,,,,,,,,,407.1263808000076,,,,,,,,,,,,,,,,,,,,,,,,,,,,,,,,,,,,,407.0698514999822,407.1263808000076,408.04106439999305,408.14108309999574,412.04092359999777,412.04092359999777,413.04093240000657,413.04093240000657,413.04093240000657,414.4040955999808,period,1,1.350960000010673,None,414.4042989999871,414.4363098999893,414.4363098999893,,,416.4095044999849,3.0,['slash'],416.4096539999882,416.4409625999979,,418.4139259000076,[0.7553926999971736],[None],,,,,,,,,,,,,,,,,,,,,,,,,,,,,,,,,,,,,,,,,,,,,,,,,,,,,,,,,,,,,,,,,,,,,,,,,,,,,,,007,001,2024-05-31_17h01.35.946,ps,2023.2.3,30.01761734097313,2024-05-31 17h01.47.070035 -0400,
mini_blocks/3dp_wm_mini_block_3.xlsx,"*Break*
Entering the 3D WORKING MEMORY block
Rotation is Counter/Clockwise
Press <4> to continue",1,0,0,3D,p,180,False,True,3,obj3,340,160,output_pairs/3Dp_180_WM/3Dp_60_WM_03_1_obj_3_340deg.png,output_pairs/3Dp_180_WM/3Dp_60_WM_03_2_obj_3_160deg.png,503,comma,0,1,1,1,,,,,0,14,14,14,,,,,,,,,418.4701387999812,,,,,,,,,,,,,,,,,,,,,,,,,,,,,,,,,,,,,418.41408669998054,418.4701387999812,419.4033232999791,419.46991779998643,423.4030883999949,423.4364690000075,424.44104909998714,424.4077187999792,424.4077187999792,425.57066110000596,period,0,1.1446498000004794,None,425.570868699986,425.6029601999908,425.6029601999908,427.6031712999975,427.6031712999975,427.57369190000463,4.0,['rshift'],427.57396559999324,427.6031712999975,,429.57461399998283,[0.5971223000087775],[None],,,,,,,,,,,,,,,,,,,,,,,,,,,,,,,,,,,,,,,,,,,,,,,,,,,,,,,,,,,,,,,,,,,,,,,,,,,,,,,007,001,2024-05-31_17h01.35.946,ps,2023.2.3,30.01761734097313,2024-05-31 17h01.47.070035 -0400,
mini_blocks/3dp_wm_mini_block_3.xlsx,"*Break*
Entering the 3D WORKING MEMORY block
Rotation is Counter/Clockwise
Press <4> to continue",1,0,0,3D,p,180,True,True,22,obj3,60,240,output_pairs/3Dp_180_M_WM/3Dp_180_M_WM_22_1_obj_3_60deg.png,output_pairs/3Dp_180_M_WM/3Dp_180_M_WM_22_2_obj_3_240deg.png,62,period,0,1,1,1,,,,,0,15,15,15,,,,,,,,,429.6318465999793,,,,,,,,,,,,,,,,,,,,,,,,,,,,,,,,,,,,,429.5748018999875,429.6318465999793,430.58038249998935,430.64694119998603,434.60775549997925,434.57442530000117,435.6034056000062,435.5699773999804,435.5699773999804,436.70422290000715,period,1,1.101130800001556,None,436.7044741999998,436.7367340000055,436.7367340000055,438.73664129999815,438.73664129999815,438.7072387999797,3.0,['slash'],438.7074059000006,438.73664129999815,,440.7079504999856,[1.5269315999757964],[None],,,,,,,,,,,,,,,,,,,,,,,,,,,,,,,,,,,,,,,,,,,,,,,,,,,,,,,,,,,,,,,,,,,,,,,,,,,,,,,007,001,2024-05-31_17h01.35.946,ps,2023.2.3,30.01761734097313,2024-05-31 17h01.47.070035 -0400,
mini_blocks/3dp_wm_mini_block_3.xlsx,"*Break*
Entering the 3D WORKING MEMORY block
Rotation is Counter/Clockwise
Press <4> to continue",1,0,0,,,,,,,,,,,,,,0,1,1,1,,,,,,,,,,,,,,,,,,,,,,,,,,,,,,,,,,,,,,,,,,,,,,,,,,,,,,,,,,,,,,,,,,,,,,,,,,,,,,,,,,440.7080187999818,440.74121710000327,440.74121710000327,,,448.709849100007,4.0,"['rshift', 'period', 'rshift']","[3.179301800002577, 4.001967400021385, 4.490871700021671]","[None, None, None]",448.71000749999075,448.7100300999882,None,,,,,,,,,,,,,,,,,,,,,,,,,,,,,,,,,,,,,,,,,,,,,,,,,,,,,,,,,,,,,,,,,,007,001,2024-05-31_17h01.35.946,ps,2023.2.3,30.01761734097313,2024-05-31 17h01.47.070035 -0400,
mini_blocks/2d_single_mini_block_2.xlsx,"*Break*
Entering the 2D SIMULTANEOUS block
Rotation is Counter/Clockwise
Press <4> to continue",0,1,0,2D,None,0,True,False,None,sm5,40,None,output_pairs/2D_0m/2D_0m_SM5_40deg.png,None,1142,period,0,2,2,2,0,0,0,0,,,,,,,,,,,,,455.8104645999847,,,,,,,,,,,,,,,,,,,,,,,,,,,,,,448.71021649998147,448.7406902000075,448.7406902000075,455.7082821999793,rshift,6.95498830001452,None,,,,,,,,,,,,,,,465.7410418999789,465.7741023999988,465.7741023999988,,,467.7382776000013,None,None,467.73840840000776,467.7698776999896,,469.7367865999986,,,,,,,,,,,,,,,,455.71485449999454,455.8104645999847,456.7470727000036,456.7470727000036,456.81364989999565,465.74080679999315,None,0,,,,,,,,,,,,,,,,,,,,,,,,,,,,,,,,,,,,,,,,,,,,,,,,,,,,,,,,,,007,001,2024-05-31_17h01.35.946,ps,2023.2.3,30.01761734097313,2024-05-31 17h01.47.070035 -0400,
mini_blocks/2d_single_mini_block_2.xlsx,"*Break*
Entering the 2D SIMULTANEOUS block
Rotation is Counter/Clockwise
Press <4> to continue",0,1,0,2D,None,120,True,False,None,sm3,340,100,output_pairs/2D_120m/2D_120m_SM3_340_to_100deg.png,None,1387,period,0,2,2,2,0,1,1,1,,,,,,,,,,,,,469.7735610999807,,,,,,,,,,,,,,,,,,,,,,,,,,,,,,,,,,,,,,,,,,,,,,,,,,,479.7042579999834,479.74103599999216,479.74103599999216,,,481.7384921000048,3.0,['slash'],481.73871939998935,481.7698346999823,,483.7414729000011,[1.4908920000016224],[None],,,,,,,,,,,,,,469.73709169999347,469.7735610999807,470.71407809999073,470.71407809999073,470.7809819999966,479.70409539999673,None,0,479.74103599999216,479.74103599999216,,,,,,,,,,,,,,,,,,,,,,,,,,,,,,,,,,,,,,,,,,,,,,,,,,,,,,,,007,001,2024-05-31_17h01.35.946,ps,2023.2.3,30.01761734097313,2024-05-31 17h01.47.070035 -0400,
mini_blocks/2d_single_mini_block_2.xlsx,"*Break*
Entering the 2D SIMULTANEOUS block
Rotation is Counter/Clockwise
Press <4> to continue",0,1,0,2D,None,180,False,False,None,obj1,160,340,output_pairs/2D_180/2D_180_obj_1_160_to_340deg.png,None,1064,comma,0,2,2,2,0,2,2,2,,,,,,,,,,,,,483.77822949999245,,,,,,,,,,,,,,,,,,,,,,,,,,,,,,,,,,,,,,,,,,,,,,,,,,,493.7040316000057,493.7367755000014,493.7367755000014,495.7369841999898,495.7369841999898,495.7114945999929,4.0,['rshift'],495.7116379000072,495.7369841999898,497.74994680000236,497.7042803999793,[0.9753828000102658],[None],,,,,,,,,,,,,,483.74173099998734,483.77822949999245,484.7140141999989,484.7140141999989,484.78073209998547,493.70383039998705,None,0,493.7367755000014,493.7367755000014,,,,,,,,,,,,,,,,,,,,,,,,,,,,,,,,,,,,,,,,,,,,,,,,,,,,,,,,007,001,2024-05-31_17h01.35.946,ps,2023.2.3,30.01761734097313,2024-05-31 17h01.47.070035 -0400,
mini_blocks/2d_single_mini_block_2.xlsx,"*Break*
Entering the 2D SIMULTANEOUS block
Rotation is Counter/Clockwise
Press <4> to continue",0,1,0,2D,None,60,False,False,None,sm4,280,340,output_pairs/2D_60/2D_60_SM4_280_to_340deg.png,None,942,comma,0,2,2,2,0,3,3,3,,,,,,,,,,,,,497.74994680000236,,,,,,,,,,,,,,,,,,,,,,,,,,,,,,,,,,,,,,,,,,,,,,,,,,,507.73698329998297,507.77005920000374,507.77005920000374,,,509.7386778999935,3.0,['slash'],509.73883299998124,509.77006509999046,,511.7141454999801,[1.3179650999954902],[None],,,,,,,,,,,,,,497.70446559999255,497.74994680000236,498.7412481000065,498.7412481000065,498.770291599998,507.73676390000037,None,0,,,,,,,,,,,,,,,,,,,,,,,,,,,,,,,,,,,,,,,,,,,,,,,,,,,,,,,,,,007,001,2024-05-31_17h01.35.946,ps,2023.2.3,30.01761734097313,2024-05-31 17h01.47.070035 -0400,
mini_blocks/2d_single_mini_block_2.xlsx,"*Break*
Entering the 2D SIMULTANEOUS block
Rotation is Counter/Clockwise
Press <4> to continue",0,1,0,2D,None,180,True,False,None,sm4,0,180,output_pairs/2D_180m/2D_180m_SM4_0_to_180deg.png,None,1360,period,0,2,2,2,0,4,4,4,,,,,,,,,,,,,511.7634640999895,,,,,,,,,,,,,,,,,,,,,,,,,,,,,,,,,,,,,,,,,,,,,,,,,,,521.7042773999856,521.7369870999828,521.7369870999828,523.7414294999908,523.7414294999908,523.711729600007,3.0,['slash'],523.7118719999853,523.7414294999908,,525.7415196000075,[0.6789130000106525],[None],,,,,,,,,,,,,,511.7143260999874,511.7634640999895,512.7369951999863,512.7369951999863,512.7704062999983,521.7041107999976,None,0,521.7369870999828,521.7369870999828,,,,,,,,,,,,,,,,,,,,,,,,,,,,,,,,,,,,,,,,,,,,,,,,,,,,,,,,007,001,2024-05-31_17h01.35.946,ps,2023.2.3,30.01761734097313,2024-05-31 17h01.47.070035 -0400,
mini_blocks/2d_single_mini_block_2.xlsx,"*Break*
Entering the 2D SIMULTANEOUS block
Rotation is Counter/Clockwise
Press <4> to continue",0,1,0,2D,None,60,True,False,None,obj4,160,220,output_pairs/2D_60m/2D_60m_obj_4_160_to_220deg.png,None,548,period,0,2,2,2,0,5,5,5,,,,,,,,,,,,,525.777246099984,,,,,,,,,,,,,,,,,,,,,,,,,,,,,,,,,,,,,,,,,,,,,,,,,,,535.7040362999833,535.7367420999799,535.7367420999799,537.7374004999874,537.7374004999874,537.7134226000053,2.0,None,537.7135048999917,537.7374004999874,539.7412471999996,539.7043903000013,,,,,,,,,,,,,,,,525.7417160999903,525.777246099984,526.7140534000064,526.7140534000064,526.780752599996,535.7038522000075,None,0,535.7367420999799,535.7367420999799,,,,,,,,,,,,,,,,,,,,,,,,,,,,,,,,,,,,,,,,,,,,,,,,,,,,,,,,007,001,2024-05-31_17h01.35.946,ps,2023.2.3,30.01761734097313,2024-05-31 17h01.47.070035 -0400,
mini_blocks/2d_single_mini_block_2.xlsx,"*Break*
Entering the 2D SIMULTANEOUS block
Rotation is Counter/Clockwise
Press <4> to continue",0,1,0,2D,None,0,False,False,None,obj1,120,None,output_pairs/2D_0/2D_0_obj_13_120deg.png,None,1996,comma,0,2,2,2,0,6,6,6,,,,,,,,,,,,,539.7412471999996,,,,,,,,,,,,,,,,,,,,,,,,,,,,,,,,,,,,,,,,,,,,,,,,,,,549.7046267999976,549.7411507999932,549.7411507999932,,,551.715712300007,4.0,['rshift'],551.7158623999858,551.7368960999884,553.7423385999864,553.7042408999987,[0.6833872999995947],[None],,,,,,,,,,,,,,539.704559899983,539.7412471999996,540.737147399981,540.737147399981,540.7705096999998,549.7044505999947,None,0,549.7411507999932,549.7411507999932,,,,,,,,,,,,,,,,,,,,,,,,,,,,,,,,,,,,,,,,,,,,,,,,,,,,,,,,007,001,2024-05-31_17h01.35.946,ps,2023.2.3,30.01761734097313,2024-05-31 17h01.47.070035 -0400,
mini_blocks/2d_single_mini_block_2.xlsx,"*Break*
Entering the 2D SIMULTANEOUS block
Rotation is Counter/Clockwise
Press <4> to continue",0,1,0,2D,None,120,False,False,None,obj1,100,220,output_pairs/2D_120/2D_120_obj_1_100_to_220deg.png,None,1097,comma,0,2,2,2,0,7,7,7,,,,,,,,,,,,,553.7423385999864,,,,,,,,,,,,,,,,,,,,,,,,,,,,,,,,,,,,,,,,,,,,,,,,,,,563.7045207000047,563.737071999989,563.737071999989,565.7373292999982,565.7373292999982,565.7123053999967,None,None,565.7124285000027,565.7373292999982,567.7412422999914,567.7046692000004,,,,,,,,,,,,,,,,553.704629099986,553.7423385999864,554.7083870999923,554.7083870999923,554.7414102999901,563.7043582999904,None,0,563.737071999989,563.737071999989,,,,,,,,,,,,,,,,,,,,,,,,,,,,,,,,,,,,,,,,,,,,,,,,,,,,,,,,007,001,2024-05-31_17h01.35.946,ps,2023.2.3,30.01761734097313,2024-05-31 17h01.47.070035 -0400,
mini_blocks/2d_single_mini_block_2.xlsx,"*Break*
Entering the 2D SIMULTANEOUS block
Rotation is Counter/Clockwise
Press <4> to continue",0,1,0,2D,None,180,True,False,None,sm2,200,20,output_pairs/2D_180m/2D_180m_SM2_200_to_20deg.png,None,1370,period,0,2,2,2,0,8,8,8,,,,,,,,,,,,,567.7412422999914,,,,,,,,,,,,,,,,,,,,,,,,,,,,,,,,,,,,,,,,,,,,,,,,,,,577.7043711000006,577.737023499998,577.737023499998,,,579.7104728999839,2.0,['period'],579.7106357000011,579.7418284000014,,581.7374717000057,[1.2868294999934733],[None],,,,,,,,,,,,,,567.7049244999944,567.7412422999914,568.7373154999805,568.7373154999805,568.7745730000024,577.7041935999878,None,0,577.737023499998,577.737023499998,,,,,,,,,,,,,,,,,,,,,,,,,,,,,,,,,,,,,,,,,,,,,,,,,,,,,,,,007,001,2024-05-31_17h01.35.946,ps,2023.2.3,30.01761734097313,2024-05-31 17h01.47.070035 -0400,
mini_blocks/2d_single_mini_block_2.xlsx,"*Break*
Entering the 2D SIMULTANEOUS block
Rotation is Counter/Clockwise
Press <4> to continue",0,1,0,2D,None,120,True,False,None,obj5,60,180,output_pairs/2D_120m/2D_120m_obj_5_60_to_180deg.png,None,1392,period,0,2,2,2,0,9,9,9,,,,,,,,,,,,,581.7747175999975,,,,,,,,,,,,,,,,,,,,,,,,,,,,,,,,,,,,,,,,,,,,,,,,,,,591.7046677999897,591.7372035000008,591.7372035000008,593.7416969999904,593.7416969999904,593.7119708999817,None,None,593.7120507999789,593.7416969999904,,595.7417962999898,,,,,,,,,,,,,,,,581.7377746999846,581.7747175999975,582.7374088999932,582.7374088999932,582.8039585999795,591.7044320999994,None,0,591.7372035000008,591.7372035000008,,,,,,,,,,,,,,,,,,,,,,,,,,,,,,,,,,,,,,,,,,,,,,,,,,,,,,,,007,001,2024-05-31_17h01.35.946,ps,2023.2.3,30.01761734097313,2024-05-31 17h01.47.070035 -0400,
mini_blocks/2d_single_mini_block_2.xlsx,"*Break*
Entering the 2D SIMULTANEOUS block
Rotation is Counter/Clockwise
Press <4> to continue",0,1,0,2D,None,60,True,False,None,obj1,80,140,output_pairs/2D_60m/2D_60m_obj_13_80_to_140deg.png,None,562,period,0,2,2,2,0,10,10,10,,,,,,,,,,,,,595.7888596999983,,,,,,,,,,,,,,,,,,,,,,,,,,,,,,,,,,,,,,,,,,,,,,,,,,,605.7375644999847,605.7705700999941,605.7705700999941,,,607.7102118000039,2.0,['period'],607.7103636999964,607.7417260999791,,609.7376174999808,[1.7496048999892082],[None],,,,,,,,,,,,,,595.7419818000053,595.7888596999983,596.741676399979,596.741676399979,596.8040161999816,605.737287099997,None,0,,,,,,,,,,,,,,,,,,,,,,,,,,,,,,,,,,,,,,,,,,,,,,,,,,,,,,,,,,007,001,2024-05-31_17h01.35.946,ps,2023.2.3,30.01761734097313,2024-05-31 17h01.47.070035 -0400,
mini_blocks/2d_single_mini_block_2.xlsx,"*Break*
Entering the 2D SIMULTANEOUS block
Rotation is Counter/Clockwise
Press <4> to continue",0,1,0,2D,None,120,False,False,None,obj8,220,340,output_pairs/2D_120/2D_120_obj_8_220_to_340deg.png,None,1118,comma,0,2,2,2,0,11,11,11,,,,,,,,,,,,,609.7818081000005,,,,,,,,,,,,,,,,,,,,,,,,,,,,,,,,,,,,,,,,,,,,,,,,,,,619.7047591999872,619.7370766999957,619.7370766999957,621.7419169000059,621.7419169000059,621.7080357999948,4.0,['rshift'],621.7082513000059,621.7419169000059,,623.7145356999827,[0.4462626000167802],[None],,,,,,,,,,,,,,609.7378780999861,609.7818081000005,610.7375352999952,610.7375352999952,610.8040780999872,619.7044422999898,None,0,619.7370766999957,619.7370766999957,,,,,,,,,,,,,,,,,,,,,,,,,,,,,,,,,,,,,,,,,,,,,,,,,,,,,,,,007,001,2024-05-31_17h01.35.946,ps,2023.2.3,30.01761734097313,2024-05-31 17h01.47.070035 -0400,
mini_blocks/2d_single_mini_block_2.xlsx,"*Break*
Entering the 2D SIMULTANEOUS block
Rotation is Counter/Clockwise
Press <4> to continue",0,1,0,2D,None,0,False,False,None,obj1,120,None,output_pairs/2D_0/2D_0_obj_11_120deg.png,None,1985,comma,0,2,2,2,0,12,12,12,,,,,,,,,,,,,623.7654315999825,,,,,,,,,,,,,,,,,,,,,,,,,,,,,,,,,,,,,,,,,,,,,,,,,,,633.7048242999881,633.7372397999861,633.7372397999861,,,635.7101687999966,4.0,['rshift'],635.7103234999813,635.7418166999996,,637.7376115999941,[1.214907999994466],[None],,,,,,,,,,,,,,623.7147125999909,623.7654315999825,624.7374878999835,624.7374878999835,624.770927000005,633.7046565999917,None,0,633.7372397999861,633.7372397999861,,,,,,,,,,,,,,,,,,,,,,,,,,,,,,,,,,,,,,,,,,,,,,,,,,,,,,,,007,001,2024-05-31_17h01.35.946,ps,2023.2.3,30.01761734097313,2024-05-31 17h01.47.070035 -0400,
mini_blocks/2d_single_mini_block_2.xlsx,"*Break*
Entering the 2D SIMULTANEOUS block
Rotation is Counter/Clockwise
Press <4> to continue",0,1,0,2D,None,60,False,False,None,sm2,20,80,output_pairs/2D_60/2D_60_SM2_20_to_80deg.png,None,929,comma,0,2,2,2,0,13,13,13,,,,,,,,,,,,,637.7746599999955,,,,,,,,,,,,,,,,,,,,,,,,,,,,,,,,,,,,,,,,,,,,,,,,,,,647.7048053999897,647.7372795999981,647.7372795999981,,,649.7104321999941,3.0,['slash'],649.7105826000043,649.7421227000013,,651.7148978000041,[0.9991802000149619],[None],,,,,,,,,,,,,,637.7378933999862,637.7746599999955,638.7144851000048,638.7144851000048,638.7813677999948,647.7046259999915,None,0,647.7372795999981,647.7372795999981,,,,,,,,,,,,,,,,,,,,,,,,,,,,,,,,,,,,,,,,,,,,,,,,,,,,,,,,007,001,2024-05-31_17h01.35.946,ps,2023.2.3,30.01761734097313,2024-05-31 17h01.47.070035 -0400,
mini_blocks/2d_single_mini_block_2.xlsx,"*Break*
Entering the 2D SIMULTANEOUS block
Rotation is Counter/Clockwise
Press <4> to continue",0,1,0,2D,None,180,False,False,None,obj6,40,220,output_pairs/2D_180/2D_180_obj_6_40_to_220deg.png,None,1083,comma,0,2,2,2,0,14,14,14,,,,,,,,,,,,,651.763993999979,,,,,,,,,,,,,,,,,,,,,,,,,,,,,,,,,,,,,,,,,,,,,,,,,,,661.7048838000046,661.7374435999955,661.7374435999955,663.7375667000015,663.7375667000015,663.707946999988,None,None,663.7080375000078,663.7375667000015,,665.7147529000067,,,,,,,,,,,,,,,,651.7150634999853,651.763993999979,652.7376902999822,652.7376902999822,652.7709531,661.7047165999829,None,0,661.7374435999955,661.7374435999955,,,,,,,,,,,,,,,,,,,,,,,,,,,,,,,,,,,,,,,,,,,,,,,,,,,,,,,,007,001,2024-05-31_17h01.35.946,ps,2023.2.3,30.01761734097313,2024-05-31 17h01.47.070035 -0400,
mini_blocks/2d_single_mini_block_2.xlsx,"*Break*
Entering the 2D SIMULTANEOUS block
Rotation is Counter/Clockwise
Press <4> to continue",0,1,0,2D,None,0,True,False,None,obj3,340,None,output_pairs/2D_0m/2D_0m_obj_3_340deg.png,None,1123,period,0,2,2,2,0,15,15,15,,,,,,,,,,,,,665.7650617999898,,,,,,,,,,,,,,,,,,,,,,,,,,,,,,,,,,,,,,,,,,,,,,,,,,,675.7049653999857,675.7376081999973,675.7376081999973,677.7420623999787,677.7420623999787,677.7081178999797,None,None,677.7081994999899,677.7420623999787,,679.7420649999985,,,,,,,,,,,,,,,,665.714947600005,665.7650617999898,666.7086717000057,666.7086717000057,666.7753007999854,675.7047667999868,None,0,675.7376081999973,675.7376081999973,,,,,,,,,,,,,,,,,,,,,,,,,,,,,,,,,,,,,,,,,,,,,,,,,,,,,,,,007,001,2024-05-31_17h01.35.946,ps,2023.2.3,30.01761734097313,2024-05-31 17h01.47.070035 -0400,
mini_blocks/2d_single_mini_block_2.xlsx,"*Break*
Entering the 2D SIMULTANEOUS block
Rotation is Counter/Clockwise
Press <4> to continue",0,1,0,,,,,,,,,,,,,,0,2,2,2,,,,,,,,,,,,,,,,,,,,,,,,,,,,,,,,,,,,,,,,,,,,,,,,,,,,,,,,,,,,,,,,,,,,,,,,,,,,,,,,,,679.7491668000002,679.770992899983,679.770992899983,,,687.7402762999991,4.0,['rshift'],[1.7970884999958798],[None],687.7404426999856,687.7404742999934,None,,,,,,,,,,,,,,,,,,,,,,,,,,,,,,,,,,,,,,,,,,,,,,,,,,,,,,,,,,,,,,,,,,007,001,2024-05-31_17h01.35.946,ps,2023.2.3,30.01761734097313,2024-05-31 17h01.47.070035 -0400,
mini_blocks/2d_single_mini_block_3.xlsx,"*Break*
Entering the 2D SIMULTANEOUS block
Rotation is Counter/Clockwise
Press <4> to continue",0,1,1,2D,None,120,False,False,None,obj1,140,260,output_pairs/2D_120/2D_120_obj_1_140_to_260deg.png,None,1117,comma,0,3,3,3,0,0,0,0,,,,,,,,,,,,,700.1237593999831,,,,,,,,,,,,,,,,,,,,,,,,,,,,,,687.7406123999972,687.7708217999898,687.7708217999898,700.0719820999948,rshift,12.300598500005435,None,,,,,,,,,,,,,,,710.0384490999859,710.1041151999962,710.1041151999962,712.1045632000023,712.1045632000023,712.0755196999817,3.0,['slash'],712.0757792000077,712.1045632000023,,714.0816611000046,[1.3614285000076052],[None],,,,,,,,,,,,,,700.0783788999834,700.1237593999831,701.0711317999812,701.0711317999812,701.1378585000057,710.0382014999923,None,0,710.070922599989,710.070922599989,,,,,,,,,,,,,,,,,,,,,,,,,,,,,,,,,,,,,,,,,,,,,,,,,,,,,,,,007,001,2024-05-31_17h01.35.946,ps,2023.2.3,30.01761734097313,2024-05-31 17h01.47.070035 -0400,
mini_blocks/2d_single_mini_block_3.xlsx,"*Break*
Entering the 2D SIMULTANEOUS block
Rotation is Counter/Clockwise
Press <4> to continue",0,1,1,2D,None,60,True,False,None,obj1,20,80,output_pairs/2D_60m/2D_60m_obj_1_20_to_80deg.png,None,546,period,0,3,3,3,0,1,1,1,,,,,,,,,,,,,714.1224892000027,,,,,,,,,,,,,,,,,,,,,,,,,,,,,,,,,,,,,,,,,,,,,,,,,,,724.0384405999794,724.1044591999962,724.1044591999962,,,726.0773460000055,3.0,['slash'],726.0775244999968,726.1089515000058,,728.1047486999887,[1.391369199991459],[None],,,,,,,,,,,,,,714.0818546999944,714.1224892000027,715.0713151999807,715.0713151999807,715.137948699994,724.0382741999929,None,0,724.07115969999,724.07115969999,,,,,,,,,,,,,,,,,,,,,,,,,,,,,,,,,,,,,,,,,,,,,,,,,,,,,,,,007,001,2024-05-31_17h01.35.946,ps,2023.2.3,30.01761734097313,2024-05-31 17h01.47.070035 -0400,
mini_blocks/2d_single_mini_block_3.xlsx,"*Break*
Entering the 2D SIMULTANEOUS block
Rotation is Counter/Clockwise
Press <4> to continue",0,1,1,2D,None,0,False,False,None,obj4,280,None,output_pairs/2D_0/2D_0_obj_4_280deg.png,None,2011,comma,0,3,3,3,0,2,2,2,,,,,,,,,,,,,728.1513815000071,,,,,,,,,,,,,,,,,,,,,,,,,,,,,,,,,,,,,,,,,,,,,,,,,,,738.07162469998,738.1044266999816,738.1044266999816,,,740.0775247999991,4.0,['rshift'],740.077676099987,740.1090341999952,,742.0759049000044,[0.7198427999974228],[None],,,,,,,,,,,,,,728.1049917000055,728.1513815000071,729.0816733999818,729.0816733999818,729.1810070000065,738.0714405000035,None,0,738.1044266999816,738.1044266999816,,,,,,,,,,,,,,,,,,,,,,,,,,,,,,,,,,,,,,,,,,,,,,,,,,,,,,,,007,001,2024-05-31_17h01.35.946,ps,2023.2.3,30.01761734097313,2024-05-31 17h01.47.070035 -0400,
mini_blocks/2d_single_mini_block_3.xlsx,"*Break*
Entering the 2D SIMULTANEOUS block
Rotation is Counter/Clockwise
Press <4> to continue",0,1,1,2D,None,0,False,False,None,sm2,340,None,output_pairs/2D_0/2D_0_SM2_340deg.png,None,2014,comma,0,3,3,3,0,3,3,3,,,,,,,,,,,,,742.1210406000027,,,,,,,,,,,,,,,,,,,,,,,,,,,,,,,,,,,,,,,,,,,,,,,,,,,746.5061019999848,746.5423331999918,746.5423331999918,,,748.5168477999978,4.0,['rshift'],748.5170421999937,748.548423900007,,750.5379898999818,[0.809031100012362],[None],,,,,,,,,,,,,,742.076078699989,742.1210406000027,743.0713760000071,743.0713760000071,743.1379731000052,746.5058336000075,period,0,,,3.4328795000037644,None,,,,,,,,,,,,,,,,,,,,,,,,,,,,,,,,,,,,,,,,,,,,,,,,,,,,,,007,001,2024-05-31_17h01.35.946,ps,2023.2.3,30.01761734097313,2024-05-31 17h01.47.070035 -0400,
mini_blocks/2d_single_mini_block_3.xlsx,"*Break*
Entering the 2D SIMULTANEOUS block
Rotation is Counter/Clockwise
Press <4> to continue",0,1,1,2D,None,60,False,False,None,obj3,260,320,output_pairs/2D_60/2D_60_obj_3_260_to_320deg.png,None,952,comma,0,3,3,3,0,4,4,4,,,,,,,,,,,,,750.5838648999925,,,,,,,,,,,,,,,,,,,,,,,,,,,,,,,,,,,,,,,,,,,,,,,,,,,752.7053887999791,752.7377096999844,752.7377096999844,754.7423889999918,754.7423889999918,754.7088856000046,None,None,754.708968299994,754.7423889999918,,756.7151021999889,,,,,,,,,,,,,,,,750.5383119999897,750.5838648999925,751.5153266999987,751.5153266999987,751.6150460999925,752.7051783000061,period,0,,,1.1812298000149895,None,,,,,,,,,,,,,,,,,,,,,,,,,,,,,,,,,,,,,,,,,,,,,,,,,,,,,,007,001,2024-05-31_17h01.35.946,ps,2023.2.3,30.01761734097313,2024-05-31 17h01.47.070035 -0400,
mini_blocks/2d_single_mini_block_3.xlsx,"*Break*
Entering the 2D SIMULTANEOUS block
Rotation is Counter/Clockwise
Press <4> to continue",0,1,1,2D,None,120,False,False,None,sm1,340,100,output_pairs/2D_120/2D_120_SM1_340_to_100deg.png,None,1112,comma,0,3,3,3,0,5,5,5,,,,,,,,,,,,,756.7658296999871,,,,,,,,,,,,,,,,,,,,,,,,,,,,,,,,,,,,,,,,,,,,,,,,,,,761.2721648000006,761.3045403999859,761.3045403999859,,,763.2775335999904,None,None,763.2776212999888,763.3050168000045,765.3178210000042,765.2721111999999,,,,,,,,,,,,,,,,756.7152650000062,756.7658296999871,757.7048195999814,757.7048195999814,757.7714857999817,761.2719633999805,period,0,,,3.534646799991606,None,,,,,,,,,,,,,,,,,,,,,,,,,,,,,,,,,,,,,,,,,,,,,,,,,,,,,,007,001,2024-05-31_17h01.35.946,ps,2023.2.3,30.01761734097313,2024-05-31 17h01.47.070035 -0400,
mini_blocks/2d_single_mini_block_3.xlsx,"*Break*
Entering the 2D SIMULTANEOUS block
Rotation is Counter/Clockwise
Press <4> to continue",0,1,1,2D,None,60,True,False,None,obj9,0,60,output_pairs/2D_60m/2D_60m_obj_9_0_to_60deg.png,None,549,period,0,3,3,3,0,6,6,6,,,,,,,,,,,,,765.3178210000042,,,,,,,,,,,,,,,,,,,,,,,,,,,,,,,,,,,,,,,,,,,,,,,,,,,768.972578099987,769.0044902999944,769.0044902999944,,,770.9773849000048,4.0,['rshift'],770.9775318999891,771.0091474000074,,772.9821811000002,[1.6521984999999404],[None],,,,,,,,,,,,,,765.2722859999922,765.3178210000042,766.2718492999848,766.2718492999848,766.3381836999906,768.9723643999896,period,1,,,2.696124800015241,None,,,,,,,,,,,,,,,,,,,,,,,,,,,,,,,,,,,,,,,,,,,,,,,,,,,,,,007,001,2024-05-31_17h01.35.946,ps,2023.2.3,30.01761734097313,2024-05-31 17h01.47.070035 -0400,
mini_blocks/2d_single_mini_block_3.xlsx,"*Break*
Entering the 2D SIMULTANEOUS block
Rotation is Counter/Clockwise
Press <4> to continue",0,1,1,2D,None,180,False,False,None,sm5,320,140,output_pairs/2D_180/2D_180_SM5_320_to_140deg.png,None,1059,comma,0,3,3,3,0,7,7,7,,,,,,,,,,,,,773.0308490000025,,,,,,,,,,,,,,,,,,,,,,,,,,,,,,,,,,,,,,,,,,,,,,,,,,,777.4724921000015,777.504680699989,777.504680699989,,,779.4777597000066,3.0,['slash'],779.4779181999911,779.5092057999864,,781.5050307000056,[1.1596997000160627],[None],,,,,,,,,,,,,,772.9823494000011,773.0308490000025,774.0047798999876,774.0047798999876,774.0381661999854,777.4722770999942,period,0,,,3.452540799975395,None,,,,,,,,,,,,,,,,,,,,,,,,,,,,,,,,,,,,,,,,,,,,,,,,,,,,,,007,001,2024-05-31_17h01.35.946,ps,2023.2.3,30.01761734097313,2024-05-31 17h01.47.070035 -0400,
mini_blocks/2d_single_mini_block_3.xlsx,"*Break*
Entering the 2D SIMULTANEOUS block
Rotation is Counter/Clockwise
Press <4> to continue",0,1,1,2D,None,180,True,False,None,sm3,300,120,output_pairs/2D_180m/2D_180m_SM3_300_to_120deg.png,None,1373,period,0,3,3,3,0,8,8,8,,,,,,,,,,,,,781.5504842999799,,,,,,,,,,,,,,,,,,,,,,,,,,,,,,,,,,,,,,,,,,,,,,,,,,,785.3431227999972,785.3756081000029,785.3756081000029,787.3717400000023,787.3717400000023,787.3460637999815,3.0,['slash'],787.3462087999796,787.3717400000023,789.3793493999983,789.3429357999994,[0.9455346000031568],[None],,,,,,,,,,,,,,781.5052905000048,781.5504842999799,782.4820089999994,782.4820089999994,782.5713286999962,785.3429047999962,period,1,,,2.8381511000043247,None,,,,,,,,,,,,,,,,,,,,,,,,,,,,,,,,,,,,,,,,,,,,,,,,,,,,,,007,001,2024-05-31_17h01.35.946,ps,2023.2.3,30.01761734097313,2024-05-31 17h01.47.070035 -0400,
mini_blocks/2d_single_mini_block_3.xlsx,"*Break*
Entering the 2D SIMULTANEOUS block
Rotation is Counter/Clockwise
Press <4> to continue",0,1,1,2D,None,60,False,False,None,obj6,220,280,output_pairs/2D_60/2D_60_obj_6_220_to_280deg.png,None,953,comma,0,3,3,3,0,9,9,9,,,,,,,,,,,,,789.3793493999983,,,,,,,,,,,,,,,,,,,,,,,,,,,,,,,,,,,,,,,,,,,,,,,,,,,793.7393964999937,793.7716268999793,793.7716268999793,795.7712868999806,795.7712868999806,795.7417658999912,4.0,['rshift'],795.7419371999858,795.7712868999806,,797.7428359999903,[1.0054042999981903],[None],,,,,,,,,,,,,,789.3431108999939,789.3793493999983,790.3484838999866,790.3484838999866,790.3815661999979,793.7391783999919,comma,1,,,3.364188900013687,None,,,,,,,,,,,,,,,,,,,,,,,,,,,,,,,,,,,,,,,,,,,,,,,,,,,,,,007,001,2024-05-31_17h01.35.946,ps,2023.2.3,30.01761734097313,2024-05-31 17h01.47.070035 -0400,
mini_blocks/2d_single_mini_block_3.xlsx,"*Break*
Entering the 2D SIMULTANEOUS block
Rotation is Counter/Clockwise
Press <4> to continue",0,1,1,2D,None,180,True,False,None,sm1,60,240,output_pairs/2D_180m/2D_180m_SM1_60_to_240deg.png,None,1356,period,0,3,3,3,0,10,10,10,,,,,,,,,,,,,797.7899306000036,,,,,,,,,,,,,,,,,,,,,,,,,,,,,,,,,,,,,,,,,,,,,,,,,,,802.272060599993,802.3047568000038,802.3047568000038,,,804.2779062000045,2.0,['period'],804.2780984999845,804.3092998999928,,806.3052821999881,[1.391332599974703],[None],,,,,,,,,,,,,,797.7430402000027,797.7899306000036,798.7425163000007,798.7425163000007,798.8049721999851,802.2718511999992,period,1,,,3.5140702000062447,None,,,,,,,,,,,,,,,,,,,,,,,,,,,,,,,,,,,,,,,,,,,,,,,,,,,,,,007,001,2024-05-31_17h01.35.946,ps,2023.2.3,30.01761734097313,2024-05-31 17h01.47.070035 -0400,
mini_blocks/2d_single_mini_block_3.xlsx,"*Break*
Entering the 2D SIMULTANEOUS block
Rotation is Counter/Clockwise
Press <4> to continue",0,1,1,2D,None,120,True,False,None,obj1,120,240,output_pairs/2D_120m/2D_120m_obj_13_120_to_240deg.png,None,1385,period,0,3,3,3,0,11,11,11,,,,,,,,,,,,,806.3507631999964,,,,,,,,,,,,,,,,,,,,,,,,,,,,,,,,,,,,,,,,,,,,,,,,,,,810.2098961999873,810.2423019999987,810.2423019999987,,,812.2401504000009,3.0,['slash'],812.2403154000058,812.2717050999927,,814.2384806000046,[1.4382648000027984],[None],,,,,,,,,,,,,,806.3055358999991,806.3507631999964,807.2715937999892,807.2715937999892,807.3819174999953,810.2096860999882,period,1,,,2.93577689997619,None,,,,,,,,,,,,,,,,,,,,,,,,,,,,,,,,,,,,,,,,,,,,,,,,,,,,,,007,001,2024-05-31_17h01.35.946,ps,2023.2.3,30.01761734097313,2024-05-31 17h01.47.070035 -0400,
mini_blocks/2d_single_mini_block_3.xlsx,"*Break*
Entering the 2D SIMULTANEOUS block
Rotation is Counter/Clockwise
Press <4> to continue",0,1,1,2D,None,0,True,False,None,obj7,280,None,output_pairs/2D_0m/2D_0m_obj_7_280deg.png,None,1125,period,0,3,3,3,0,12,12,12,,,,,,,,,,,,,814.2751144999929,,,,,,,,,,,,,,,,,,,,,,,,,,,,,,,,,,,,,,,,,,,,,,,,,,,816.9061903999827,816.9423078999971,816.9423078999971,,,818.9400221999967,4.0,['rshift'],818.9402161999897,818.9714425999846,,820.9156539999822,[1.0253704999922775],[None],,,,,,,,,,,,,,814.2387878999871,814.2751144999929,815.2426712999877,815.2426712999877,815.2715983999951,816.9058348999824,period,1,,,1.637911099998746,None,,,,,,,,,,,,,,,,,,,,,,,,,,,,,,,,,,,,,,,,,,,,,,,,,,,,,,007,001,2024-05-31_17h01.35.946,ps,2023.2.3,30.01761734097313,2024-05-31 17h01.47.070035 -0400,
mini_blocks/2d_single_mini_block_3.xlsx,"*Break*
Entering the 2D SIMULTANEOUS block
Rotation is Counter/Clockwise
Press <4> to continue",0,1,1,2D,None,180,False,False,None,obj2,340,160,output_pairs/2D_180/2D_180_obj_2_340_to_160deg.png,None,1062,comma,0,3,3,3,0,13,13,13,,,,,,,,,,,,,820.9666541999904,,,,,,,,,,,,,,,,,,,,,,,,,,,,,,,,,,,,,,,,,,,,,,,,,,,824.4059234999877,824.4379219999828,824.4379219999828,,,826.4111332999892,3.0,['slash'],826.4112924000074,826.4427274999907,,828.438514599984,[0.9303567000024486],[None],,,,,,,,,,,,,,820.9160054999811,820.9666541999904,821.9383153999806,821.9383153999806,821.9717806999979,824.4057118000055,period,0,,,2.4543910000065807,None,,,,,,,,,,,,,,,,,,,,,,,,,,,,,,,,,,,,,,,,,,,,,,,,,,,,,,007,001,2024-05-31_17h01.35.946,ps,2023.2.3,30.01761734097313,2024-05-31 17h01.47.070035 -0400,
mini_blocks/2d_single_mini_block_3.xlsx,"*Break*
Entering the 2D SIMULTANEOUS block
Rotation is Counter/Clockwise
Press <4> to continue",0,1,1,2D,None,0,True,False,None,sm2,220,None,output_pairs/2D_0m/2D_0m_SM2_220deg.png,None,1137,period,0,3,3,3,0,14,14,14,,,,,,,,,,,,,828.4756721000012,,,,,,,,,,,,,,,,,,,,,,,,,,,,,,,,,,,,,,,,,,,,,,,,,,,831.7059246999852,831.7380997999862,831.7380997999862,833.7427452999982,833.7427452999982,833.7113764999958,4.0,None,833.7114612000005,833.7427452999982,,835.7427249999892,,,,,,,,,,,,,,,,828.4387825999875,828.4756721000012,829.4050974999845,829.4050974999845,829.505131199985,831.705715499993,period,1,,,2.2756490999890957,None,,,,,,,,,,,,,,,,,,,,,,,,,,,,,,,,,,,,,,,,,,,,,,,,,,,,,,007,001,2024-05-31_17h01.35.946,ps,2023.2.3,30.01761734097313,2024-05-31 17h01.47.070035 -0400,
mini_blocks/2d_single_mini_block_3.xlsx,"*Break*
Entering the 2D SIMULTANEOUS block
Rotation is Counter/Clockwise
Press <4> to continue",0,1,1,2D,None,120,True,False,None,obj2,120,240,output_pairs/2D_120m/2D_120m_obj_2_120_to_240deg.png,None,1399,period,0,3,3,3,0,15,15,15,,,,,,,,,,,,,835.7881737999851,,,,,,,,,,,,,,,,,,,,,,,,,,,,,,,,,,,,,,,,,,,,,,,,,,,839.2058559999859,839.2380663999938,839.2380663999938,,,841.2112152999907,2.0,"['slash', 'period']",841.2113666999794,841.2427970999852,,843.2427871999971,"[0.7942665000155102, 1.5778338000236545]","[None, None]",,,,,,,,,,,,,,835.7429083999887,835.7881737999851,836.7050367000047,836.7050367000047,836.8050676999846,839.2056465999922,period,1,,,2.471199899999192,None,,,,,,,,,,,,,,,,,,,,,,,,,,,,,,,,,,,,,,,,,,,,,,,,,,,,,,007,001,2024-05-31_17h01.35.946,ps,2023.2.3,30.01761734097313,2024-05-31 17h01.47.070035 -0400,
mini_blocks/2d_single_mini_block_3.xlsx,"*Break*
Entering the 2D SIMULTANEOUS block
Rotation is Counter/Clockwise
Press <4> to continue",0,1,1,,,,,,,,,,,,,,0,3,3,3,,,,,,,,,,,,,,,,,,,,,,,,,,,,,,,,,,,,,,,,,,,,,,,,,,,,,,,,,,,,,,,,,,,,,,,,,,,,,,,,,,843.2493581000017,843.2717316999915,843.2717316999915,,,851.2401648999949,4.0,['rshift'],[1.1851147999987006],[None],851.2403082999808,868.00614089999,rshift,,,,,,,,,,,,,851.2715020999894,851.2715020999894,16.70502199998009,None,,,,,,,,,,,,,,,,,,,,,,,,,,,,,,,,,,,,,,,,,,,,,,,,,,007,001,2024-05-31_17h01.35.946,ps,2023.2.3,30.01761734097313,2024-05-31 17h01.47.070035 -0400,
mini_blocks/3dp_single_mini_block_0.xlsx,"*Break*
Entering the 3D SIMULTANEOUS block
Rotation is Counter/Clockwise
Press <4> to continue",0,1,0,3D,p,180,True,False,None,sm1,340,160,output_pairs/3Dp_180m/3Dp_180m_sm_1_340_to_160deg.png,None,2033,period,0,4,4,4,0,0,0,0,,,,,,,,,,,,,870.686584399984,,,,,,,,,,,,,,,,,,,,,,,,,,,,,,868.0065198999946,868.0385952999932,868.0385952999932,870.643511799979,rshift,2.6013932999921963,None,,,,,,,,,,,,,,,873.8729711000051,873.9049819000065,873.9049819000065,,,875.8780401999829,2.0,['period'],875.8782814999868,875.9053894999961,877.9088938999921,877.8724901999813,[1.9123105000180658],[None],,,,,,,,,,,,,,870.6503831000009,870.686584399984,871.6385238000075,871.6385238000075,871.7052113999962,873.8726670999895,period,1,,,2.226794299989706,None,,,,,,,,,,,,,,,,,,,,,,,,,,,,,,,,,,,,,,,,,,,,,,,,,,,,,,007,001,2024-05-31_17h01.35.946,ps,2023.2.3,30.01761734097313,2024-05-31 17h01.47.070035 -0400,
mini_blocks/3dp_single_mini_block_0.xlsx,"*Break*
Entering the 3D SIMULTANEOUS block
Rotation is Counter/Clockwise
Press <4> to continue",0,1,0,3D,p,120,True,False,None,obj9,220,340,output_pairs/3Dp_120m/3Dp_120m_obj_9_220_to_340deg.png,None,2117,period,0,4,4,4,0,1,1,1,,,,,,,,,,,,,877.9088938999921,,,,,,,,,,,,,,,,,,,,,,,,,,,,,,,,,,,,,,,,,,,,,,,,,,,882.006083699991,882.0382678000024,882.0382678000024,884.038367000001,884.038367000001,884.0092135999876,2.0,['period'],884.0093632999924,884.038367000001,,886.0156209999986,[1.8739747000217903],[None],,,,,,,,,,,,,,877.872647399985,877.9088938999921,878.8823452999932,878.8823452999932,878.9054789000074,882.0058702999959,period,1,,,3.0950991999998223,None,,,,,,,,,,,,,,,,,,,,,,,,,,,,,,,,,,,,,,,,,,,,,,,,,,,,,,007,001,2024-05-31_17h01.35.946,ps,2023.2.3,30.01761734097313,2024-05-31 17h01.47.070035 -0400,
mini_blocks/3dp_single_mini_block_0.xlsx,"*Break*
Entering the 3D SIMULTANEOUS block
Rotation is Counter/Clockwise
Press <4> to continue",0,1,0,3D,p,0,False,False,None,obj9,260,None,output_pairs/3Dp_0/3Dp_0_obj_9_260deg.png,None,2150,comma,0,4,4,4,0,2,2,2,,,,,,,,,,,,,886.0564211999881,,,,,,,,,,,,,,,,,,,,,,,,,,,,,,,,,,,,,,,,,,,,,,,,,,,888.549157100002,888.5815034999978,888.5815034999978,,,890.5736870999972,3.0,['slash'],890.5738452000078,890.6049869999988,,892.5765588000068,[1.08332320000045],[None],,,,,,,,,,,,,,886.0158496999939,886.0564211999881,887.0055330999894,887.0055330999894,887.071941799979,888.548956499988,comma,1,,,1.515265800000634,None,,,,,,,,,,,,,,,,,,,,,,,,,,,,,,,,,,,,,,,,,,,,,,,,,,,,,,007,001,2024-05-31_17h01.35.946,ps,2023.2.3,30.01761734097313,2024-05-31 17h01.47.070035 -0400,
mini_blocks/3dp_single_mini_block_0.xlsx,"*Break*
Entering the 3D SIMULTANEOUS block
Rotation is Counter/Clockwise
Press <4> to continue",0,1,0,3D,p,120,False,False,None,obj7,300,60,output_pairs/3Dp_120/3Dp_120_obj_7_300_to_60deg.png,None,715,comma,0,4,4,4,0,3,3,3,,,,,,,,,,,,,892.613125599979,,,,,,,,,,,,,,,,,,,,,,,,,,,,,,,,,,,,,,,,,,,,,,,,,,,897.2394326000067,897.2716477999929,897.2716477999929,899.2765331999981,899.2765331999981,899.2429165999929,2.0,['period'],899.2430746000027,899.2765331999981,,901.2724060000037,[1.8170532000076491],[None],,,,,,,,,,,,,,892.5767457000038,892.613125599979,893.5719362999953,893.5719362999953,893.638687300001,897.239104599983,period,0,,,3.6594026000238955,None,,,,,,,,,,,,,,,,,,,,,,,,,,,,,,,,,,,,,,,,,,,,,,,,,,,,,,007,001,2024-05-31_17h01.35.946,ps,2023.2.3,30.01761734097313,2024-05-31 17h01.47.070035 -0400,
mini_blocks/3dp_single_mini_block_0.xlsx,"*Break*
Entering the 3D SIMULTANEOUS block
Rotation is Counter/Clockwise
Press <4> to continue",0,1,0,3D,p,60,True,False,None,obj1,200,260,output_pairs/3Dp_60m/3Dp_60m_obj_15_200_to_260deg.png,None,846,period,0,4,4,4,0,4,4,4,,,,,,,,,,,,,901.3109585999919,,,,,,,,,,,,,,,,,,,,,,,,,,,,,,,,,,,,,,,,,,,,,,,,,,,904.806319299998,904.8387975999794,904.8387975999794,906.8384268999798,906.8384268999798,906.8089234000072,2.0,['period'],906.8090808999841,906.8384268999798,,908.809920300002,[1.9301010000053793],[None],,,,,,,,,,,,,,901.2727131999854,901.3109585999919,902.238557100005,902.238557100005,902.3385683999804,904.8061094000004,period,1,,,2.545415200002026,None,,,,,,,,,,,,,,,,,,,,,,,,,,,,,,,,,,,,,,,,,,,,,,,,,,,,,,007,001,2024-05-31_17h01.35.946,ps,2023.2.3,30.01761734097313,2024-05-31 17h01.47.070035 -0400,
mini_blocks/3dp_single_mini_block_0.xlsx,"*Break*
Entering the 3D SIMULTANEOUS block
Rotation is Counter/Clockwise
Press <4> to continue",0,1,0,3D,p,180,False,False,None,sm5,240,60,output_pairs/3Dp_180/3Dp_180_sm_5_240_to_60deg.png,None,766,comma,0,4,4,4,0,5,5,5,,,,,,,,,,,,,908.845558800007,,,,,,,,,,,,,,,,,,,,,,,,,,,,,,,,,,,,,,,,,,,,,,,,,,,911.3064671999891,911.3424904999847,911.3424904999847,,,913.3404256000067,3.0,None,913.3405196999956,913.3717442000052,,915.3098766999901,,,,,,,,,,,,,,,,908.8101085999806,908.845558800007,909.8054753000033,909.8054753000033,909.872055099986,911.3062589000037,period,0,,,1.4833287000074051,None,,,,,,,,,,,,,,,,,,,,,,,,,,,,,,,,,,,,,,,,,,,,,,,,,,,,,,007,001,2024-05-31_17h01.35.946,ps,2023.2.3,30.01761734097313,2024-05-31 17h01.47.070035 -0400,
mini_blocks/3dp_single_mini_block_0.xlsx,"*Break*
Entering the 3D SIMULTANEOUS block
Rotation is Counter/Clockwise
Press <4> to continue",0,1,0,3D,p,60,True,False,None,obj1,140,200,output_pairs/3Dp_60m/3Dp_60m_obj_10_140_to_200deg.png,None,859,period,0,4,4,4,0,6,6,6,,,,,,,,,,,,,915.3458764999814,,,,,,,,,,,,,,,,,,,,,,,,,,,,,,,,,,,,,,,,,,,,,,,,,,,919.6394155999878,919.6716957000026,919.6716957000026,,,921.6452819999831,3.0,['slash'],921.6454323999933,921.6764237000025,,923.6721819999802,[1.0798346000083257],[None],,,,,,,,,,,,,,915.3100759999943,915.3458764999814,916.3386909999826,916.3386909999826,916.3721344000078,919.6392043999804,period,1,,,3.2690018999855965,None,,,,,,,,,,,,,,,,,,,,,,,,,,,,,,,,,,,,,,,,,,,,,,,,,,,,,,007,001,2024-05-31_17h01.35.946,ps,2023.2.3,30.01761734097313,2024-05-31 17h01.47.070035 -0400,
mini_blocks/3dp_single_mini_block_0.xlsx,"*Break*
Entering the 3D SIMULTANEOUS block
Rotation is Counter/Clockwise
Press <4> to continue",0,1,0,3D,p,180,False,False,None,obj8,0,180,output_pairs/3Dp_180/3Dp_180_obj_8_0_to_180deg.png,None,762,comma,0,4,4,4,0,7,7,7,,,,,,,,,,,,,923.708701399999,,,,,,,,,,,,,,,,,,,,,,,,,,,,,,,,,,,,,,,,,,,,,,,,,,,927.3772509999981,927.4054710000055,927.4054710000055,929.4098189999931,929.4098189999931,929.3760668000032,None,None,929.3761616999982,929.4098189999931,,931.4055530999904,,,,,,,,,,,,,,,,923.6724519999989,923.708701399999,924.6388754999789,924.6388754999789,924.7153576999845,927.3770085999859,period,0,,,2.737363899999764,None,,,,,,,,,,,,,,,,,,,,,,,,,,,,,,,,,,,,,,,,,,,,,,,,,,,,,,007,001,2024-05-31_17h01.35.946,ps,2023.2.3,30.01761734097313,2024-05-31 17h01.47.070035 -0400,
mini_blocks/3dp_single_mini_block_0.xlsx,"*Break*
Entering the 3D SIMULTANEOUS block
Rotation is Counter/Clockwise
Press <4> to continue",0,1,0,3D,p,0,True,False,None,obj1,280,None,output_pairs/3Dp_0m/3Dp_0m_obj_12_280deg.png,None,1716,period,0,4,4,4,0,8,8,8,,,,,,,,,,,,,931.4420415000059,,,,,,,,,,,,,,,,,,,,,,,,,,,,,,,,,,,,,,,,,,,,,,,,,,,935.1396408999863,935.1717447999981,935.1717447999981,,,937.1449484000041,3.0,['slash'],937.1451021999819,937.1765092999849,,939.1432993999915,[1.4287602999829687],[None],,,,,,,,,,,,,,931.4057654000062,931.4420415000059,932.4055375999887,932.4055375999887,932.4721914999827,935.1394257000065,period,1,,,2.7070481999835465,None,,,,,,,,,,,,,,,,,,,,,,,,,,,,,,,,,,,,,,,,,,,,,,,,,,,,,,007,001,2024-05-31_17h01.35.946,ps,2023.2.3,30.01761734097313,2024-05-31 17h01.47.070035 -0400,
mini_blocks/3dp_single_mini_block_0.xlsx,"*Break*
Entering the 3D SIMULTANEOUS block
Rotation is Counter/Clockwise
Press <4> to continue",0,1,0,3D,p,120,True,False,None,obj1,200,320,output_pairs/3Dp_120m/3Dp_120m_obj_10_200_to_320deg.png,None,2138,period,0,4,4,4,0,9,9,9,,,,,,,,,,,,,939.1780116999871,,,,,,,,,,,,,,,,,,,,,,,,,,,,,,,,,,,,,,,,,,,,,,,,,,,944.0102304999891,944.0427478000056,944.0427478000056,,,946.040593999991,2.0,['period'],946.0407612999843,946.0718800000031,,948.0389291000029,[1.221801499981666],[None],,,,,,,,,,,,,,939.143493999989,939.1780116999871,940.1430769999861,940.1430769999861,940.205558799993,944.0100237999868,period,1,,,3.8411259000131395,None,,,,,,,,,,,,,,,,,,,,,,,,,,,,,,,,,,,,,,,,,,,,,,,,,,,,,,007,001,2024-05-31_17h01.35.946,ps,2023.2.3,30.01761734097313,2024-05-31 17h01.47.070035 -0400,
mini_blocks/3dp_single_mini_block_0.xlsx,"*Break*
Entering the 3D SIMULTANEOUS block
Rotation is Counter/Clockwise
Press <4> to continue",0,1,0,3D,p,180,True,False,None,sm1,20,200,output_pairs/3Dp_180m/3Dp_180m_sm_1_20_to_200deg.png,None,2039,period,0,4,4,4,0,10,10,10,,,,,,,,,,,,,948.0753127000062,,,,,,,,,,,,,,,,,,,,,,,,,,,,,,,,,,,,,,,,,,,,,,,,,,,952.139514999988,952.171796199982,952.171796199982,,,954.1450574999908,3.0,['slash'],954.1452082000033,954.1766942999966,,956.1493719999853,[1.4615836000011768],[None],,,,,,,,,,,,,,948.0392243999813,948.0753127000062,949.0100782999943,949.0100782999943,949.0761966999853,952.1392878000042,period,1,,,3.1108970000059344,None,,,,,,,,,,,,,,,,,,,,,,,,,,,,,,,,,,,,,,,,,,,,,,,,,,,,,,007,001,2024-05-31_17h01.35.946,ps,2023.2.3,30.01761734097313,2024-05-31 17h01.47.070035 -0400,
mini_blocks/3dp_single_mini_block_0.xlsx,"*Break*
Entering the 3D SIMULTANEOUS block
Rotation is Counter/Clockwise
Press <4> to continue",0,1,0,3D,p,0,False,False,None,obj4,80,None,output_pairs/3Dp_0/3Dp_0_obj_4_80deg.png,None,2168,comma,0,4,4,4,0,11,11,11,,,,,,,,,,,,,956.1893207999819,,,,,,,,,,,,,,,,,,,,,,,,,,,,,,,,,,,,,,,,,,,,,,,,,,,958.7068933999981,958.7386322999955,958.7386322999955,960.7385473999893,960.7385473999893,960.709442899999,4.0,['rshift'],960.7095951999945,960.7385473999893,962.7422386999824,962.7060295999981,[1.190162800019607],[None],,,,,,,,,,,,,,956.149549099995,956.1893207999819,957.1389205000014,957.1389205000014,957.2057929000002,958.7066819999891,comma,1,,,1.5664261000056285,None,,,,,,,,,,,,,,,,,,,,,,,,,,,,,,,,,,,,,,,,,,,,,,,,,,,,,,007,001,2024-05-31_17h01.35.946,ps,2023.2.3,30.01761734097313,2024-05-31 17h01.47.070035 -0400,
mini_blocks/3dp_single_mini_block_0.xlsx,"*Break*
Entering the 3D SIMULTANEOUS block
Rotation is Counter/Clockwise
Press <4> to continue",0,1,0,3D,p,60,False,False,None,sm1,260,320,output_pairs/3Dp_60/3Dp_60_sm_1_260_to_320deg.png,None,1612,comma,0,4,4,4,0,12,12,12,,,,,,,,,,,,,962.7422386999824,,,,,,,,,,,,,,,,,,,,,,,,,,,,,,,,,,,,,,,,,,,,,,,,,,,967.3065534000052,967.3386589000002,967.3386589000002,,,969.3116261999821,None,None,969.311712900002,969.343317699997,,971.3391309999861,,,,,,,,,,,,,,,,962.7062079999887,962.7422386999824,963.7100118999952,963.7100118999952,963.7430147999839,967.3063437999808,comma,1,,,3.5860028000024613,None,,,,,,,,,,,,,,,,,,,,,,,,,,,,,,,,,,,,,,,,,,,,,,,,,,,,,,007,001,2024-05-31_17h01.35.946,ps,2023.2.3,30.01761734097313,2024-05-31 17h01.47.070035 -0400,
mini_blocks/3dp_single_mini_block_0.xlsx,"*Break*
Entering the 3D SIMULTANEOUS block
Rotation is Counter/Clockwise
Press <4> to continue",0,1,0,3D,p,0,True,False,None,obj5,180,None,output_pairs/3Dp_0m/3Dp_0m_obj_5_180deg.png,None,1710,period,0,4,4,4,0,13,13,13,,,,,,,,,,,,,971.3755028999876,,,,,,,,,,,,,,,,,,,,,,,,,,,,,,,,,,,,,,,,,,,,,,,,,,,974.0064796999795,974.0386834999954,974.0386834999954,,,976.0118397999904,4.0,['rshift'],976.0119897999975,976.0433125999989,,978.0391043999989,[1.19419390000985],[None],,,,,,,,,,,,,,971.33947419998,971.3755028999876,972.315790099994,972.315790099994,972.4152979000064,974.0062671999913,period,1,,,1.6600037000025623,None,,,,,,,,,,,,,,,,,,,,,,,,,,,,,,,,,,,,,,,,,,,,,,,,,,,,,,007,001,2024-05-31_17h01.35.946,ps,2023.2.3,30.01761734097313,2024-05-31 17h01.47.070035 -0400,
mini_blocks/3dp_single_mini_block_0.xlsx,"*Break*
Entering the 3D SIMULTANEOUS block
Rotation is Counter/Clockwise
Press <4> to continue",0,1,0,3D,p,120,False,False,None,obj2,280,40,output_pairs/3Dp_120/3Dp_120_obj_2_280_to_40deg.png,None,729,comma,0,4,4,4,0,14,14,14,,,,,,,,,,,,,978.0753670999839,,,,,,,,,,,,,,,,,,,,,,,,,,,,,,,,,,,,,,,,,,,,,,,,,,,982.5438541999902,982.5724197999807,982.5724197999807,,,984.550922800001,2.0,['period'],984.551071599999,984.5827752999903,,986.5723449999932,[0.7159194000123534],[None],,,,,,,,,,,,,,978.0393982999958,978.0753670999839,979.0057417000062,979.0057417000062,979.0762623999908,982.5436462000071,period,0,,,3.530784999980824,None,,,,,,,,,,,,,,,,,,,,,,,,,,,,,,,,,,,,,,,,,,,,,,,,,,,,,,007,001,2024-05-31_17h01.35.946,ps,2023.2.3,30.01761734097313,2024-05-31 17h01.47.070035 -0400,
mini_blocks/3dp_single_mini_block_0.xlsx,"*Break*
Entering the 3D SIMULTANEOUS block
Rotation is Counter/Clockwise
Press <4> to continue",0,1,0,3D,p,60,False,False,None,obj2,160,220,output_pairs/3Dp_60/3Dp_60_obj_2_160_to_220deg.png,None,1606,comma,0,4,4,4,0,15,15,15,,,,,,,,,,,,,986.6087528000062,,,,,,,,,,,,,,,,,,,,,,,,,,,,,,,,,,,,,,,,,,,,,,,,,,,990.6732371999824,990.7056520000042,990.7056520000042,,,992.6785384999821,3.0,['slash'],992.6786874999816,992.7100650999928,,994.6767625999928,[0.7668628999963403],[None],,,,,,,,,,,,,,986.5727373999835,986.6087528000062,987.5496155000001,987.5496155000001,987.6152316999796,990.6730287999962,comma,1,,,3.0916285999992397,None,,,,,,,,,,,,,,,,,,,,,,,,,,,,,,,,,,,,,,,,,,,,,,,,,,,,,,007,001,2024-05-31_17h01.35.946,ps,2023.2.3,30.01761734097313,2024-05-31 17h01.47.070035 -0400,
mini_blocks/3dp_single_mini_block_0.xlsx,"*Break*
Entering the 3D SIMULTANEOUS block
Rotation is Counter/Clockwise
Press <4> to continue",0,1,0,,,,,,,,,,,,,,0,4,4,4,,,,,,,,,,,,,,,,,,,,,,,,,,,,,,,,,,,,,,,,,,,,,,,,,,,,,,,,,,,,,,,,,,,,,,,,,,,,,,,,,,994.6831576999975,994.7058180999884,994.7058180999884,1002.70543859998,1002.70543859998,1002.6760618999833,4.0,['rshift'],[1.598324299993692],[None],1002.6762032999832,1002.6762251000036,None,,,,,,,,,,,,,,,,,,,,,,,,,,,,,,,,,,,,,,,,,,,,,,,,,,,,,,,,,,,,,,,,,,007,001,2024-05-31_17h01.35.946,ps,2023.2.3,30.01761734097313,2024-05-31 17h01.47.070035 -0400,
mini_blocks/2d_wm_mini_block_0.xlsx,"*Break*
Entering the 2D WORKING MEMORY block
Rotation is Counter/Clockwise
Press <4> to continue
               ",1,0,0,2D,None,120,True,True,10,obj4,20,260,output_pairs/2D_120_M_WM/2D_120_M_WM_10_1_obj_4_20deg.png,output_pairs/2D_120_M_WM/2D_120_M_WM_10_2_obj_4_260deg.png,254,period,0,5,5,5,,,,,0,0,0,0,,,,,,,,,1004.3312284999993,,,,,,,,,,,,,,,,,,,,,,,,,,,,,,1002.6763441000076,1002.70543859998,1002.70543859998,1004.2731692999951,rshift,1.5422580000013113,None,1004.2856049999828,1004.3312284999993,1005.2769075999968,1005.3436621000001,1009.3055456999864,1009.3055456999864,1010.3055312999932,1010.2723340999801,1010.2723340999801,1012.5774972999934,period,1,2.2719083000265528,None,1012.5777984999877,1012.6103162999789,1012.6103162999789,,,1014.6074893999903,2.0,['period'],1014.6077438000066,1014.6387396999926,,1016.6103712999902,[1.7022331999905873],[None],,,,,,,,,,,,,,,,,,,,,,,,,,,,,,,,,,,,,,,,,,,,,,,,,,,,,,,,,,,,,,,,,,,,,,,,,,,,,,,007,001,2024-05-31_17h01.35.946,ps,2023.2.3,30.01761734097313,2024-05-31 17h01.47.070035 -0400,
mini_blocks/2d_wm_mini_block_0.xlsx,"*Break*
Entering the 2D WORKING MEMORY block
Rotation is Counter/Clockwise
Press <4> to continue
               ",1,0,0,2D,None,60,True,True,19,sm1,40,100,output_pairs/2D_60_M_WM/2D_60_M_WM_19_1_SM1_40deg.png,output_pairs/2D_60_M_WM/2D_60_M_WM_19_2_SM1_100deg.png,625,period,0,5,5,5,,,,,0,1,1,1,,,,,,,,,1016.6583604000043,,,,,,,,,,,,,,,,,,,,,,,,,,,,,,,,,,,,,1016.6105617999856,1016.6583604000043,1017.5769954999851,1017.6830078999919,1021.6101913999883,1021.6101913999883,1022.6163573999947,1022.5828938999912,1022.5828938999912,1025.2065933999838,period,1,2.6016598000132944,None,1025.2068010999938,1025.2389391000033,1025.2389391000033,1027.238939200004,1027.238939200004,1027.2094922999968,None,None,1027.2095803999982,1027.238939200004,1029.2596292999806,1029.206490099983,,,,,,,,,,,,,,,,,,,,,,,,,,,,,,,,,,,,,,,,,,,,,,,,,,,,,,,,,,,,,,,,,,,,,,,,,,,,,,,,,007,001,2024-05-31_17h01.35.946,ps,2023.2.3,30.01761734097313,2024-05-31 17h01.47.070035 -0400,
mini_blocks/2d_wm_mini_block_0.xlsx,"*Break*
Entering the 2D WORKING MEMORY block
Rotation is Counter/Clockwise
Press <4> to continue
               ",1,0,0,2D,None,60,False,True,24,sm4,40,100,output_pairs/2D_60_WM/2D_60_WM_24_1_SM4_40deg.png,output_pairs/2D_60_WM/2D_60_WM_24_2_SM4_100deg.png,148,comma,0,5,5,5,,,,,0,2,2,2,,,,,,,,,1029.2596292999806,,,,,,,,,,,,,,,,,,,,,,,,,,,,,,,,,,,,,1029.2066709999926,1029.2596292999806,1030.2101573999971,1030.2724958999897,1034.2390331999923,1034.2390331999923,1035.2437084999983,1035.2104055999953,1035.2104055999953,1036.977774900006,comma,1,1.7653600000194274,None,1036.9779711999872,1037.0104079000012,1037.0104079000012,,,1039.0077613999892,2.0,['period'],1039.0079425000004,1039.038975500007,,1041.0104640999925,[1.8940370999916922],[None],,,,,,,,,,,,,,,,,,,,,,,,,,,,,,,,,,,,,,,,,,,,,,,,,,,,,,,,,,,,,,,,,,,,,,,,,,,,,,,007,001,2024-05-31_17h01.35.946,ps,2023.2.3,30.01761734097313,2024-05-31 17h01.47.070035 -0400,
mini_blocks/2d_wm_mini_block_0.xlsx,"*Break*
Entering the 2D WORKING MEMORY block
Rotation is Counter/Clockwise
Press <4> to continue
               ",1,0,0,2D,None,60,True,True,13,obj9,60,120,output_pairs/2D_60_M_WM/2D_60_M_WM_13_1_obj_9_60deg.png,output_pairs/2D_60_M_WM/2D_60_M_WM_13_2_obj_9_120deg.png,635,period,0,5,5,5,,,,,0,3,3,3,,,,,,,,,1041.065237200004,,,,,,,,,,,,,,,,,,,,,,,,,,,,,,,,,,,,,1041.0106839000073,1041.065237200004,1041.9828886000032,1042.0830625999952,1046.005748399999,1045.9769766999816,1046.9770902000018,1046.9770902000018,1046.9770902000018,1048.3399995999935,period,1,1.3595498999929987,None,1048.3402067999996,1048.372234199982,1048.372234199982,1050.372422799992,1050.372422799992,1050.3429750000068,2.0,['period'],1050.343126599997,1050.372422799992,,1052.3497725999914,[0.8034449999977369],[None],,,,,,,,,,,,,,,,,,,,,,,,,,,,,,,,,,,,,,,,,,,,,,,,,,,,,,,,,,,,,,,,,,,,,,,,,,,,,,,007,001,2024-05-31_17h01.35.946,ps,2023.2.3,30.01761734097313,2024-05-31 17h01.47.070035 -0400,
mini_blocks/2d_wm_mini_block_0.xlsx,"*Break*
Entering the 2D WORKING MEMORY block
Rotation is Counter/Clockwise
Press <4> to continue
               ",1,0,0,2D,None,180,True,True,32,obj1,100,280,output_pairs/2D_180_M_WM/2D_180_M_WM_32_1_obj_13_100deg.png,output_pairs/2D_180_M_WM/2D_180_M_WM_32_2_obj_13_280deg.png,434,period,0,5,5,5,,,,,0,4,4,4,,,,,,,,,1052.4120001999836,,,,,,,,,,,,,,,,,,,,,,,,,,,,,,,,,,,,,1052.3499474999844,1052.4120001999836,1053.339382599981,1053.4393129999808,1057.339164999983,1057.372376299987,1058.3770211999945,1058.3437037999975,1058.3437037999975,1061.0732751000032,period,1,2.7200026999926195,None,1061.0735679999925,1061.1056726999814,1061.1056726999814,,,1063.0789050000021,2.0,['period'],1063.0790553999832,1063.1060012999806,1065.1283343999821,1065.0730998999788,[1.4554151000047568],[None],,,,,,,,,,,,,,,,,,,,,,,,,,,,,,,,,,,,,,,,,,,,,,,,,,,,,,,,,,,,,,,,,,,,,,,,,,,,,,,007,001,2024-05-31_17h01.35.946,ps,2023.2.3,30.01761734097313,2024-05-31 17h01.47.070035 -0400,
mini_blocks/2d_wm_mini_block_0.xlsx,"*Break*
Entering the 2D WORKING MEMORY block
Rotation is Counter/Clockwise
Press <4> to continue
               ",1,0,0,2D,None,180,False,True,11,obj8,60,240,output_pairs/2D_180_WM/2D_180_WM_11_1_obj_8_60deg.png,output_pairs/2D_180_WM/2D_180_WM_11_2_obj_8_240deg.png,734,comma,0,5,5,5,,,,,0,5,5,5,,,,,,,,,1065.1283343999821,,,,,,,,,,,,,,,,,,,,,,,,,,,,,,,,,,,,,1065.0732718999789,1065.1283343999821,1066.0727022000065,1066.1394310999895,1070.0770596999791,1070.0770596999791,1071.0771337999904,1071.0771337999904,1071.0771337999904,1072.2067399999942,period,0,1.107982899993658,None,1072.2069475000026,1072.23916919998,1072.23916919998,1074.2390719999967,1074.2390719999967,1074.2095819999813,2.0,['period'],1074.2097316999862,1074.2390719999967,,1076.2168009000015,[0.9381036999984644],[None],,,,,,,,,,,,,,,,,,,,,,,,,,,,,,,,,,,,,,,,,,,,,,,,,,,,,,,,,,,,,,,,,,,,,,,,,,,,,,,007,001,2024-05-31_17h01.35.946,ps,2023.2.3,30.01761734097313,2024-05-31 17h01.47.070035 -0400,
mini_blocks/2d_wm_mini_block_0.xlsx,"*Break*
Entering the 2D WORKING MEMORY block
Rotation is Counter/Clockwise
Press <4> to continue
               ",1,0,0,2D,None,180,False,True,6,obj1,140,320,output_pairs/2D_180_WM/2D_180_WM_06_1_obj_10_140deg.png,output_pairs/2D_180_WM/2D_180_WM_06_2_obj_10_320deg.png,733,comma,0,5,5,5,,,,,0,6,6,6,,,,,,,,,1076.2650456999836,,,,,,,,,,,,,,,,,,,,,,,,,,,,,,,,,,,,,1076.2169787999883,1076.2650456999836,1077.2059246999852,1077.2726779000077,1081.2057326000067,1081.2390402999881,1082.2437764999922,1082.2104296000034,1082.2104296000034,1083.3777883999865,period,0,1.1410871999978554,None,1083.3779834999877,1083.4104029999871,1083.4104029999871,,,1085.4079518999788,2.0,['period'],1085.4081194000028,1085.4391739999992,,1087.4106339999998,[1.1344232000119518],[None],,,,,,,,,,,,,,,,,,,,,,,,,,,,,,,,,,,,,,,,,,,,,,,,,,,,,,,,,,,,,,,,,,,,,,,,,,,,,,,007,001,2024-05-31_17h01.35.946,ps,2023.2.3,30.01761734097313,2024-05-31 17h01.47.070035 -0400,
mini_blocks/2d_wm_mini_block_0.xlsx,"*Break*
Entering the 2D WORKING MEMORY block
Rotation is Counter/Clockwise
Press <4> to continue
               ",1,0,0,2D,None,180,True,True,30,sm4,80,260,output_pairs/2D_180_M_WM/2D_180_M_WM_30_1_SM4_80deg.png,output_pairs/2D_180_M_WM/2D_180_M_WM_30_2_SM4_260deg.png,444,period,0,5,5,5,,,,,0,7,7,7,,,,,,,,,1087.466909299983,,,,,,,,,,,,,,,,,,,,,,,,,,,,,,,,,,,,,1087.4108206999954,1087.466909299983,1088.3832833000051,1088.472592200007,1092.4105999000021,1092.3772254000069,1093.3772226999863,1093.3772226999863,1093.3772226999863,1096.4778357000032,comma,0,3.0721409000107087,None,1096.4780298999976,1096.510516099981,1096.510516099981,1098.5105224,1098.5105224,1098.480711799988,2.0,['period'],1098.4808556000062,1098.5105224,,1100.5063960999832,[0.6979131999833044],[None],,,,,,,,,,,,,,,,,,,,,,,,,,,,,,,,,,,,,,,,,,,,,,,,,,,,,,,,,,,,,,,,,,,,,,,,,,,,,,,007,001,2024-05-31_17h01.35.946,ps,2023.2.3,30.01761734097313,2024-05-31 17h01.47.070035 -0400,
mini_blocks/2d_wm_mini_block_0.xlsx,"*Break*
Entering the 2D WORKING MEMORY block
Rotation is Counter/Clockwise
Press <4> to continue
               ",1,0,0,2D,None,120,False,True,13,obj1,40,280,output_pairs/2D_120_WM/2D_120_WM_13_1_obj_10_40deg.png,output_pairs/2D_120_WM/2D_120_WM_13_2_obj_10_280deg.png,161,comma,0,5,5,5,,,,,0,8,8,8,,,,,,,,,1100.5575576999981,,,,,,,,,,,,,,,,,,,,,,,,,,,,,,,,,,,,,1100.5067460999999,1100.5575576999981,1101.506257800007,1101.5729382999998,1105.505925000005,1105.505925000005,1106.51067779999,1106.473082899989,1106.473082899989,1108.1402817000053,comma,1,1.6637064999958966,None,1108.1404890999838,1108.1726087999996,1108.1726087999996,1110.172589099995,1110.172589099995,1110.1431252000039,3.0,['slash'],1110.1432757999864,1110.172589099995,,1112.1501912999956,[0.9321713999961503],[None],,,,,,,,,,,,,,,,,,,,,,,,,,,,,,,,,,,,,,,,,,,,,,,,,,,,,,,,,,,,,,,,,,,,,,,,,,,,,,,007,001,2024-05-31_17h01.35.946,ps,2023.2.3,30.01761734097313,2024-05-31 17h01.47.070035 -0400,
mini_blocks/2d_wm_mini_block_0.xlsx,"*Break*
Entering the 2D WORKING MEMORY block
Rotation is Counter/Clockwise
Press <4> to continue
               ",1,0,0,2D,None,0,False,True,25,obj1,240,240,output_pairs/2D_0_WM/2D_0_WM_25_1_obj_14_240deg.png,output_pairs/2D_0_WM/2D_0_WM_25_2_obj_14_240deg.png,193,comma,0,5,5,5,,,,,0,9,9,9,,,,,,,,,1112.2035788999929,,,,,,,,,,,,,,,,,,,,,,,,,,,,,,,,,,,,,1112.150383900007,1112.2035788999929,1113.139649699995,1113.2063606999873,1117.143944499985,1117.143944499985,1118.1439707999816,1118.1439707999816,1118.1439707999816,1119.2735070000053,comma,1,1.1211405000067316,None,1119.2737129000016,1119.3060179000022,1119.3060179000022,1121.3060894999944,1121.3060894999944,1121.276647599996,3.0,['slash'],1121.2768002999946,1121.3060894999944,,1123.2775447999884,[0.9752250000019558],[None],,,,,,,,,,,,,,,,,,,,,,,,,,,,,,,,,,,,,,,,,,,,,,,,,,,,,,,,,,,,,,,,,,,,,,,,,,,,,,,007,001,2024-05-31_17h01.35.946,ps,2023.2.3,30.01761734097313,2024-05-31 17h01.47.070035 -0400,
mini_blocks/2d_wm_mini_block_0.xlsx,"*Break*
Entering the 2D WORKING MEMORY block
Rotation is Counter/Clockwise
Press <4> to continue
               ",1,0,0,2D,None,0,True,True,27,obj7,300,300,output_pairs/2D_0_M_WM/2D_0_M_WM_27_1_obj_7_300deg.png,output_pairs/2D_0_M_WM/2D_0_M_WM_27_2_obj_7_300deg.png,685,period,0,5,5,5,,,,,0,10,10,10,,,,,,,,,1123.3229777999804,,,,,,,,,,,,,,,,,,,,,,,,,,,,,,,,,,,,,1123.277741900005,1123.3229777999804,1124.283295500005,1124.349909499986,1128.3107109999983,1128.2773164999962,1129.3062854000018,1129.2730881999887,1129.2730881999887,1132.1071642999887,period,1,2.823125399998389,None,1132.1073772999807,1132.1394491999818,1132.1394491999818,1134.1440210999863,1134.1440210999863,1134.1100680999807,2.0,['period'],1134.1102195999993,1134.1440210999863,,1136.1398196999799,[1.4213834000111092],[None],,,,,,,,,,,,,,,,,,,,,,,,,,,,,,,,,,,,,,,,,,,,,,,,,,,,,,,,,,,,,,,,,,,,,,,,,,,,,,,007,001,2024-05-31_17h01.35.946,ps,2023.2.3,30.01761734097313,2024-05-31 17h01.47.070035 -0400,
mini_blocks/2d_wm_mini_block_0.xlsx,"*Break*
Entering the 2D WORKING MEMORY block
Rotation is Counter/Clockwise
Press <4> to continue
               ",1,0,0,2D,None,0,True,True,1,sm3,180,180,output_pairs/2D_0_M_WM/2D_0_M_WM_01_1_SM3_180deg.png,output_pairs/2D_0_M_WM/2D_0_M_WM_01_2_SM3_180deg.png,703,period,0,5,5,5,,,,,0,11,11,11,,,,,,,,,1136.1942471999791,,,,,,,,,,,,,,,,,,,,,,,,,,,,,,,,,,,,,1136.140109400003,1136.1942471999791,1137.139721799991,1137.206408500002,1141.1440310000035,1141.1107160999964,1142.1108245000069,1142.1108245000069,1142.1108245000069,1143.8065537000075,period,1,1.665208199992776,None,1143.8067836999835,1143.839123199985,1143.839123199985,1145.8392483000061,1145.8392483000061,1145.8094603999925,2.0,['period'],1145.8096138999972,1145.8392483000061,,1147.8109730999859,[1.2891466000000946],[None],,,,,,,,,,,,,,,,,,,,,,,,,,,,,,,,,,,,,,,,,,,,,,,,,,,,,,,,,,,,,,,,,,,,,,,,,,,,,,,007,001,2024-05-31_17h01.35.946,ps,2023.2.3,30.01761734097313,2024-05-31 17h01.47.070035 -0400,
mini_blocks/2d_wm_mini_block_0.xlsx,"*Break*
Entering the 2D WORKING MEMORY block
Rotation is Counter/Clockwise
Press <4> to continue
               ",1,0,0,2D,None,0,False,True,12,obj1,100,100,output_pairs/2D_0_WM/2D_0_WM_12_1_obj_15_100deg.png,output_pairs/2D_0_WM/2D_0_WM_12_2_obj_15_100deg.png,197,comma,0,5,5,5,,,,,0,12,12,12,,,,,,,,,1147.8655812999932,,,,,,,,,,,,,,,,,,,,,,,,,,,,,,,,,,,,,1147.8111633999797,1147.8655812999932,1148.8169813999848,1148.8735613999888,1152.844087399979,1152.8107821999874,1153.8107965999807,1153.8107965999807,1153.8107965999807,1155.1404447999957,comma,1,1.326253099978203,None,1155.1406527000072,1155.172717599984,1155.172717599984,1157.1731331000046,1157.1731331000046,1157.1435611000052,3.0,"['period', 'slash']",1157.1437135000015,1157.1731331000046,1159.1944941999973,1159.1403329999885,"[0.6429242999874987, 1.179806699976325]","[None, None]",,,,,,,,,,,,,,,,,,,,,,,,,,,,,,,,,,,,,,,,,,,,,,,,,,,,,,,,,,,,,,,,,,,,,,,,,,,,,,,007,001,2024-05-31_17h01.35.946,ps,2023.2.3,30.01761734097313,2024-05-31 17h01.47.070035 -0400,
mini_blocks/2d_wm_mini_block_0.xlsx,"*Break*
Entering the 2D WORKING MEMORY block
Rotation is Counter/Clockwise
Press <4> to continue
               ",1,0,0,2D,None,120,True,True,11,obj1,140,260,output_pairs/2D_120_M_WM/2D_120_M_WM_11_1_obj_15_140deg.png,output_pairs/2D_120_M_WM/2D_120_M_WM_11_2_obj_15_260deg.png,246,period,0,5,5,5,,,,,0,13,13,13,,,,,,,,,1159.1944941999973,,,,,,,,,,,,,,,,,,,,,,,,,,,,,,,,,,,,,1159.140508099983,1159.1944941999973,1160.139827100007,1160.2064042999991,1164.1395009999978,1164.1728610999999,1165.1776600999874,1165.1443674000038,1165.1443674000038,1173.7406199999969,period,1,8.576381499995477,None,1173.7408343999996,1173.772815000004,1173.772815000004,1175.7775111999945,1175.7775111999945,1175.7441649999819,None,None,1175.744254099991,1175.7775111999945,,1177.7733214999898,,,,,,,,,,,,,,,,,,,,,,,,,,,,,,,,,,,,,,,,,,,,,,,,,,,,,,,,,,,,,,,,,,,,,,,,,,,,,,,,,007,001,2024-05-31_17h01.35.946,ps,2023.2.3,30.01761734097313,2024-05-31 17h01.47.070035 -0400,
mini_blocks/2d_wm_mini_block_0.xlsx,"*Break*
Entering the 2D WORKING MEMORY block
Rotation is Counter/Clockwise
Press <4> to continue
               ",1,0,0,2D,None,60,False,True,29,obj4,220,280,output_pairs/2D_60_WM/2D_60_WM_29_1_obj_4_220deg.png,output_pairs/2D_60_WM/2D_60_WM_29_2_obj_4_280deg.png,151,comma,0,5,5,5,,,,,0,14,14,14,,,,,,,,,1177.8268074999796,,,,,,,,,,,,,,,,,,,,,,,,,,,,,,,,,,,,,1177.7736146999814,1177.8268074999796,1178.7399066999787,1178.8399299999874,1182.7441598000005,1182.7441598000005,1183.7503679000074,1183.7503679000074,1183.7503679000074,1185.0074749999912,period,0,1.2342970999889076,None,1185.0076927999908,1185.039833399991,1185.039833399991,1187.039607499988,1187.039607499988,1187.010086299997,2.0,['period'],1187.0102426999947,1187.039607499988,1189.062639199983,1189.007010500005,[1.8484503999934532],[None],,,,,,,,,,,,,,,,,,,,,,,,,,,,,,,,,,,,,,,,,,,,,,,,,,,,,,,,,,,,,,,,,,,,,,,,,,,,,,,007,001,2024-05-31_17h01.35.946,ps,2023.2.3,30.01761734097313,2024-05-31 17h01.47.070035 -0400,
mini_blocks/2d_wm_mini_block_0.xlsx,"*Break*
Entering the 2D WORKING MEMORY block
Rotation is Counter/Clockwise
Press <4> to continue
               ",1,0,0,2D,None,120,False,True,3,obj7,300,60,output_pairs/2D_120_WM/2D_120_WM_03_1_obj_7_300deg.png,output_pairs/2D_120_WM/2D_120_WM_03_2_obj_7_60deg.png,190,comma,0,5,5,5,,,,,0,15,15,15,,,,,,,,,1189.062639199983,,,,,,,,,,,,,,,,,,,,,,,,,,,,,,,,,,,,,1189.0071870999818,1189.062639199983,1190.0111106999975,1190.077800900006,1194.0066389999993,1194.0066389999993,1195.010995699995,1195.010995699995,1195.010995699995,1197.473983200005,comma,1,2.4460873999923933,None,1197.4741914999904,1197.5064295000047,1197.5064295000047,,,1199.479355699994,3.0,['slash'],1199.4795026000065,1199.510957999999,,1201.5067542000033,[1.214391199988313],[None],,,,,,,,,,,,,,,,,,,,,,,,,,,,,,,,,,,,,,,,,,,,,,,,,,,,,,,,,,,,,,,,,,,,,,,,,,,,,,,007,001,2024-05-31_17h01.35.946,ps,2023.2.3,30.01761734097313,2024-05-31 17h01.47.070035 -0400,
mini_blocks/2d_wm_mini_block_0.xlsx,"*Break*
Entering the 2D WORKING MEMORY block
Rotation is Counter/Clockwise
Press <4> to continue
               ",1,0,0,,,,,,,,,,,,,,0,5,5,5,,,,,,,,,,,,,,,,,,,,,,,,,,,,,,,,,,,,,,,,,,,,,,,,,,,,,,,,,,,,,,,,,,,,,,,,,,,,,,,,,,1201.5068547999836,1201.5400050999888,1201.5400050999888,,,1209.5083065999788,4.0,['rshift'],[1.1408005999983288],[None],1209.5084459999925,1209.508468999993,None,,,,,,,,,,,,,,,,,,,,,,,,,,,,,,,,,,,,,,,,,,,,,,,,,,,,,,,,,,,,,,,,,,007,001,2024-05-31_17h01.35.946,ps,2023.2.3,30.01761734097313,2024-05-31 17h01.47.070035 -0400,
mini_blocks/3dp_single_mini_block_1.xlsx,"*Break*
Entering the 3D SIMULTANEOUS block
Rotation is Counter/Clockwise
Press <4> to continue",0,1,0,3D,p,120,False,False,None,obj7,160,280,output_pairs/3Dp_120/3Dp_120_obj_7_160_to_280deg.png,None,708,comma,0,6,6,6,0,0,0,0,,,,,,,,,,,,,1219.686401199986,,,,,,,,,,,,,,,,,,,,,,,,,,,,,,1209.5085869999893,1209.539845399995,1209.539845399995,1219.6408871999884,rshift,10.076666500011925,None,,,,,,,,,,,,,,,1224.8115554999968,1224.8439868999994,1224.8439868999994,,,1226.841534199979,2.0,['period'],1226.8417838999885,1226.8730594999797,,1228.8446294000023,[1.5006343999993987],[None],,,,,,,,,,,,,,1219.6504172999994,1219.686401199986,1220.6401121999952,1220.6401121999952,1220.7067763999803,1224.8112297999905,comma,1,,,4.160300899995491,None,,,,,,,,,,,,,,,,,,,,,,,,,,,,,,,,,,,,,,,,,,,,,,,,,,,,,,007,001,2024-05-31_17h01.35.946,ps,2023.2.3,30.01761734097313,2024-05-31 17h01.47.070035 -0400,
mini_blocks/3dp_single_mini_block_1.xlsx,"*Break*
Entering the 3D SIMULTANEOUS block
Rotation is Counter/Clockwise
Press <4> to continue",0,1,0,3D,p,60,False,False,None,obj4,280,340,output_pairs/3Dp_60/3Dp_60_obj_4_280_to_340deg.png,None,1619,comma,0,6,6,6,0,1,1,1,,,,,,,,,,,,,1228.8807042999833,,,,,,,,,,,,,,,,,,,,,,,,,,,,,,,,,,,,,,,,,,,,,,,,,,,1231.8742391999986,1231.9065043999872,1231.9065043999872,1233.911120100005,1233.911120100005,1233.8773201000004,3.0,['slash'],1233.8774674999877,1233.911120100005,,1235.8780329999863,[0.8856955000082962],[None],,,,,,,,,,,,,,1228.8448204000015,1228.8807042999833,1229.8113102999923,1229.8113102999923,1229.9108321999956,1231.8740261000057,comma,1,,,2.029320200002985,None,,,,,,,,,,,,,,,,,,,,,,,,,,,,,,,,,,,,,,,,,,,,,,,,,,,,,,007,001,2024-05-31_17h01.35.946,ps,2023.2.3,30.01761734097313,2024-05-31 17h01.47.070035 -0400,
mini_blocks/3dp_single_mini_block_1.xlsx,"*Break*
Entering the 3D SIMULTANEOUS block
Rotation is Counter/Clockwise
Press <4> to continue",0,1,0,3D,p,180,False,False,None,obj8,40,220,output_pairs/3Dp_180/3Dp_180_obj_8_40_to_220deg.png,None,767,comma,0,6,6,6,0,2,2,2,,,,,,,,,,,,,1235.9149381000025,,,,,,,,,,,,,,,,,,,,,,,,,,,,,,,,,,,,,,,,,,,,,,,,,,,1241.807475299982,1241.839913599979,1241.839913599979,,,1243.812950099993,3.0,['slash'],1243.8131008000055,1243.84445959999,,1245.8172824000067,[1.4494591999973636],[None],,,,,,,,,,,,,,1235.878217199992,1235.9149381000025,1236.8835990999942,1236.8835990999942,1236.9162390999845,1241.8072659999889,comma,1,,,4.893266899976879,None,,,,,,,,,,,,,,,,,,,,,,,,,,,,,,,,,,,,,,,,,,,,,,,,,,,,,,007,001,2024-05-31_17h01.35.946,ps,2023.2.3,30.01761734097313,2024-05-31 17h01.47.070035 -0400,
mini_blocks/3dp_single_mini_block_1.xlsx,"*Break*
Entering the 3D SIMULTANEOUS block
Rotation is Counter/Clockwise
Press <4> to continue",0,1,0,3D,p,120,True,False,None,obj1,200,320,output_pairs/3Dp_120m/3Dp_120m_obj_10_200_to_320deg.png,None,2138,period,0,6,6,6,0,3,3,3,,,,,,,,,,,,,1245.852845699992,,,,,,,,,,,,,,,,,,,,,,,,,,,,,,,,,,,,,,,,,,,,,,,,,,,1250.7081288000045,1250.7440843000077,1250.7440843000077,,,1252.741896499996,2.0,"['period', 'period']",1252.7420525999914,1252.7730844999896,,1254.7400841999915,"[1.0250615999975707, 1.32015469999169]","[None, None]",,,,,,,,,,,,,,1245.8174769000034,1245.852845699992,1246.8068188999896,1246.8068188999896,1246.873546799994,1250.7077979999885,comma,0,,,3.873651300003985,None,,,,,,,,,,,,,,,,,,,,,,,,,,,,,,,,,,,,,,,,,,,,,,,,,,,,,,007,001,2024-05-31_17h01.35.946,ps,2023.2.3,30.01761734097313,2024-05-31 17h01.47.070035 -0400,
mini_blocks/3dp_single_mini_block_1.xlsx,"*Break*
Entering the 3D SIMULTANEOUS block
Rotation is Counter/Clockwise
