condition_file,message_to_show,repN_wm,repN_single,repN_break,dimension,rot_type,angle,mirror,wm,pair_id,obj_id,orientation1,orientation2,image_path_1,image_path_2,marker_id,correctAns,block_loop_main.thisRepN,block_loop_main.thisTrialN,block_loop_main.thisN,block_loop_main.thisIndex,simu_trials_loop.thisRepN,simu_trials_loop.thisTrialN,simu_trials_loop.thisN,simu_trials_loop.thisIndex,wm_trials_loop.thisRepN,wm_trials_loop.thisTrialN,wm_trials_loop.thisN,wm_trials_loop.thisIndex,block_loop_3dd.thisRepN,block_loop_3dd.thisTrialN,block_loop_3dd.thisN,block_loop_3dd.thisIndex,first_3Dd_wm.thisRepN,first_3Dd_wm.thisTrialN,first_3Dd_wm.thisN,first_3Dd_wm.thisIndex,thisRow.t,notes,start.started,text_start.started,key_resp_start.started,start.stopped,key_resp_start.keys,key_resp_start.rt,key_resp_start.duration,instructions.started,key_resp_12.started,image_8.started,instructions.stopped,key_resp_12.keys,key_resp_12.rt,key_resp_12.duration,instructions_2.started,image_9.started,key_resp_20.started,instructions_2.stopped,key_resp_20.keys,key_resp_20.rt,key_resp_20.duration,instructions_3.started,image_10.started,key_resp_21.started,instructions_3.stopped,key_resp_21.keys,key_resp_21.rt,key_resp_21.duration,before_block_instr.started,text_13.started,key_resp_7.started,before_block_instr.stopped,key_resp_7.keys,key_resp_7.rt,key_resp_7.duration,routine_wm.started,text_4.started,img1.started,text_4.stopped,text_5.started,img1.stopped,text_5.stopped,img2.started,key_resp_3.started,routine_wm.stopped,key_resp_3.keys,key_resp_3.corr,key_resp_3.rt,key_resp_3.duration,vividness.started,image_vivid.started,key_resp_vivid_slider_control.started,vividness.stopped,vivid_response,key_resp_vivid_slider_control.keys,ITI.started,text_2.started,ITI.stopped,key_resp_vivid_slider_control.rt,key_resp_vivid_slider_control.duration,image_vivid.stopped,key_resp_vivid_slider_control.stopped,text_2.stopped,strat.started,image_strat.started,key_resp_strat_control.started,strat.stopped,strategy_response,key_resp_strat_control.keys,key_resp_strat_control.rt,key_resp_strat_control.duration,break_2.started,break_2.stopped,key_resp_13.keys,routine_simu.started,text.started,image.started,key_resp.started,text.stopped,image.stopped,key_resp.stopped,routine_simu.stopped,key_resp.keys,key_resp.corr,key_resp.rt,key_resp.duration,image_strat.stopped,key_resp_strat_control.stopped,text_17.started,key_resp_13.started,key_resp_13.rt,key_resp_13.duration,img2.stopped,key_resp_3.stopped,practice_3Dd_screen.started,image_11.started,key_resp_22.started,practice_3Dd_screen.stopped,key_resp_22.keys,key_resp_22.rt,key_resp_22.duration,practice_1_3Dd.started,image_12.started,key_resp_23.started,practice_1_3Dd.stopped,key_resp_23.keys,key_resp_23.rt,key_resp_23.duration,practice_2_3Dd.started,image_13.started,key_resp_24.started,practice_2_3Dd.stopped,key_resp_24.keys,key_resp_24.rt,key_resp_24.duration,wm_3Dd_screen.started,text_16.started,key_resp_11.started,wm_3Dd_screen.stopped,key_resp_11.keys,key_resp_11.rt,key_resp_11.duration,routine_3Dd_wm.started,text_8.started,image_6.started,text_8.stopped,image_6.stopped,text_12.started,text_12.stopped,image_7.started,key_resp_6.started,routine_3Dd_wm.stopped,key_resp_6.keys,key_resp_6.corr,key_resp_6.rt,key_resp_6.duration,image_7.stopped,key_resp_6.stopped,end.started,text_22.started,key_resp_18.started,end.stopped,key_resp_18.keys,key_resp_18.rt,key_resp_18.duration,participant,session,date,expName,psychopyVersion,frameRate,expStart,
,,,,,,,,,,,,,,,,,,,,,,,,,,,,,,,,,,,,,,,,0.07277539995266125,0.07902639999520034,0.07902639999520034,2.0265315999859013,rshift,1.9468403999926522,None,,,,,,,,,,,,,,,,,,,,,,,,,,,,,,,,,,,,,,,,,,,,,,,,,,,,,,,,,,,,,,,,,,,,,,,,,,,,,,,,,,,,,,,,,,,,,,,,,,,,,,,,,,,,,,,,,,,,,,,,,,,,,,,,,,,,,,,,,,,008,001,2024-06-03_11h57.10.031,ps,2023.2.3,30.001164047043453,2024-06-03 11h57.21.449406 -0400,
,,,,,,,,,,,,,,,,,,,,,,,,,,,,,,,,,,,,,,,,,,,,,,,2.0265498999506235,2.050653299957048,2.050653299957048,5.622455399949104,rshift,3.565227599989157,None,,,,,,,,,,,,,,,,,,,,,,,,,,,,,,,,,,,,,,,,,,,,,,,,,,,,,,,,,,,,,,,,,,,,,,,,,,,,,,,,,,,,,,,,,,,,,,,,,,,,,,,,,,,,,,,,,,,,,,,,,,,,,,,,,,,,008,001,2024-06-03_11h57.10.031,ps,2023.2.3,30.001164047043453,2024-06-03 11h57.21.449406 -0400,
,,,,,,,,,,,,,,,,,,,,,,,,,,,,,,,,,,,,,,,,,,,,,,,,,,,,,,5.6224736999720335,5.6544550999533385,5.6544550999533385,8.98469179996755,rshift,3.2977555000106804,None,,,,,,,,,,,,,,,,,,,,,,,,,,,,,,,,,,,,,,,,,,,,,,,,,,,,,,,,,,,,,,,,,,,,,,,,,,,,,,,,,,,,,,,,,,,,,,,,,,,,,,,,,,,,,,,,,,,,,,,,,,,,,008,001,2024-06-03_11h57.10.031,ps,2023.2.3,30.001164047043453,2024-06-03 11h57.21.449406 -0400,
,,,,,,,,,,,,,,,,,,,,,,,,,,,,,,,,,,,,,,,,,,,,,,,,,,,,,,,,,,,,,8.98470879998058,9.02134009997826,9.02134009997826,12.455159599951003,rshift,3.4112540000351146,None,,,,,,,,,,,,,,,,,,,,,,,,,,,,,,,,,,,,,,,,,,,,,,,,,,,,,,,,,,,,,,,,,,,,,,,,,,,,,,,,,,,,,,,,,,,,,,,,,,,,,,,,,,,,,,,,,,,,,,008,001,2024-06-03_11h57.10.031,ps,2023.2.3,30.001164047043453,2024-06-03 11h57.21.449406 -0400,
mini_blocks/3dp_wm_mini_block_1.xlsx,"*Break*
Entering the 3D WORKING MEMORY block
Rotation is Counter/Clockwise
Press <4> to continue",1,0,0,3D,p,0,True,True,15,obj2,320,320,output_pairs/3Dp_0_M_WM/3Dp_0_M_WM_15_1_obj_2_320deg.png,output_pairs/3Dp_0_M_WM/3Dp_0_M_WM_15_2_obj_2_320deg.png,523,period,0,0,0,0,,,,,0,0,0,0,,,,,,,,,16.2430179999792,,,,,,,,,,,,,,,,,,,,,,,,,,,,,,12.460557399957906,12.48795339994831,12.48795339994831,16.056160799984355,rshift,3.552183999971021,None,16.06900909997057,16.2430179999792,17.08869769994635,17.255094299966004,21.08878339995863,21.11735629994655,22.089114899979904,22.089114899979904,22.089114899979904,25.951297599996906,period,1,3.839035500015598,None,25.95164589997148,25.98406889999751,25.98406889999751,27.957085599948186,None,None,27.957209999964107,27.989292999962345,29.96122539998032,,,,,,,,,,,,,,,,,,,,,,,,,,,,,,,,,,,,,,,,,,,,,,,,,,,,,,,,,,,,,,,,,,,,,,,,,,,,,,,,,,,,,,,,008,001,2024-06-03_11h57.10.031,ps,2023.2.3,30.001164047043453,2024-06-03 11h57.21.449406 -0400,
mini_blocks/3dp_wm_mini_block_1.xlsx,"*Break*
Entering the 3D WORKING MEMORY block
Rotation is Counter/Clockwise
Press <4> to continue",1,0,0,3D,p,180,False,True,21,obj9,0,180,output_pairs/3Dp_180_WM/3Dp_60_WM_21_1_obj_9_0deg.png,output_pairs/3Dp_180_WM/3Dp_60_WM_21_2_obj_9_180deg.png,482,comma,0,0,0,0,,,,,0,1,1,1,,,,,,,,,30.025816099951044,,,,,,,,,,,,,,,,,,,,,,,,,,,,,,,,,,,,,29.96139559999574,30.025816099951044,30.955182599951513,31.05527869996149,34.95523589994991,34.9890467999503,35.95537959999638,35.95537959999638,35.95537959999638,41.05592739995336,comma,1,5.068439499998931,None,41.0561241999967,41.088673099991865,41.088673099991865,43.08555419999175,2.0,['period'],43.08580349996919,43.11792519997107,45.088868299964815,[0.9998569999588653],[None],,,,,,,,,,,,,,,,,,,,,,,,,,,,,,,,,,,,,,,,,,,,,,,,,,,,,,,,,,,,,,,,,,,,,,,,,,,,,,,,,,,,,,008,001,2024-06-03_11h57.10.031,ps,2023.2.3,30.001164047043453,2024-06-03 11h57.21.449406 -0400,
mini_blocks/3dp_wm_mini_block_1.xlsx,"*Break*
Entering the 3D WORKING MEMORY block
Rotation is Counter/Clockwise
Press <4> to continue",1,0,0,3D,p,120,True,True,8,obj5,200,320,output_pairs/3Dp_120_M_WM/3Dp_120_M_WM_08_1_obj_5_200deg.png,output_pairs/3Dp_120_M_WM/3Dp_120_M_WM_08_2_obj_5_320deg.png,651,period,0,0,0,0,,,,,0,2,2,2,,,,,,,,,45.14200539997546,,,,,,,,,,,,,,,,,,,,,,,,,,,,,,,,,,,,,45.0890377999749,45.14200539997546,46.055453999957535,46.1554763999884,50.05524379998678,50.05524379998678,51.06108349998249,51.06108349998249,51.06108349998249,54.91804359998787,period,1,3.8270568000152707,None,54.9182429999928,54.950791499984916,54.950791499984916,56.92352889996255,1.0,['comma'],56.92367629997898,56.95539249997819,58.92197489994578,[1.0180360000231303],[None],,,,,,,,,,,,,,,,,,,,,,,,,,,,,,,,,,,,,,,,,,,,,,,,,,,,,,,,,,,,,,,,,,,,,,,,,,,,,,,,,,,,,,008,001,2024-06-03_11h57.10.031,ps,2023.2.3,30.001164047043453,2024-06-03 11h57.21.449406 -0400,
mini_blocks/3dp_wm_mini_block_1.xlsx,"*Break*
Entering the 3D WORKING MEMORY block
Rotation is Counter/Clockwise
Press <4> to continue",1,0,0,3D,p,60,True,True,21,sm2,100,40,output_pairs/3Dp_60_M_WM/3Dp_60_M_WM_21_1_sm_2_100deg.png,output_pairs/3Dp_60_M_WM/3Dp_60_M_WM_21_2_sm_2_40deg.png,293,period,0,0,0,0,,,,,0,3,3,3,,,,,,,,,58.984167199989315,,,,,,,,,,,,,,,,,,,,,,,,,,,,,,,,,,,,,58.92214129999047,58.984167199989315,59.9224930999917,59.99471479997737,63.9219908999512,63.9219908999512,64.92786119994707,64.92786119994707,64.92786119994707,67.45165869995253,comma,0,2.496377700008452,None,67.45185939996736,67.484164399968,67.484164399968,69.45767589996103,1.0,['comma'],69.45783319999464,69.48882989998674,71.45535969996126,[1.4134623000281863],[None],,,,,,,,,,,,,,,,,,,,,,,,,,,,,,,,,,,,,,,,,,,,,,,,,,,,,,,,,,,,,,,,,,,,,,,,,,,,,,,,,,,,,,008,001,2024-06-03_11h57.10.031,ps,2023.2.3,30.001164047043453,2024-06-03 11h57.21.449406 -0400,
mini_blocks/3dp_wm_mini_block_1.xlsx,"*Break*
Entering the 3D WORKING MEMORY block
Rotation is Counter/Clockwise
Press <4> to continue",1,0,0,3D,p,60,False,True,9,sm5,240,300,output_pairs/3Dp_60_WM/3Dp_60_WM_09_1_sm_5_240deg.png,output_pairs/3Dp_60_WM/3Dp_60_WM_09_2_sm_5_300deg.png,396,comma,0,0,0,0,,,,,0,4,4,4,,,,,,,,,71.51767309999559,,,,,,,,,,,,,,,,,,,,,,,,,,,,,,,,,,,,,71.45552939997287,71.51767309999559,72.45094929996412,72.52193639997859,76.45584999996936,76.45584999996936,77.45541709999088,77.45541709999088,77.45541709999088,81.58514069998637,comma,1,4.128904299985152,None,81.58538979996229,81.6220887999516,81.6220887999516,83.59022779995576,4.0,['rshift'],83.59037409996381,83.62210219999542,85.58909169997787,[0.9218549999641255],[None],,,,,,,,,,,,,,,,,,,,,,,,,,,,,,,,,,,,,,,,,,,,,,,,,,,,,,,,,,,,,,,,,,,,,,,,,,,,,,,,,,,,,,008,001,2024-06-03_11h57.10.031,ps,2023.2.3,30.001164047043453,2024-06-03 11h57.21.449406 -0400,
mini_blocks/3dp_wm_mini_block_1.xlsx,"*Break*
Entering the 3D WORKING MEMORY block
Rotation is Counter/Clockwise
Press <4> to continue",1,0,0,3D,p,180,True,True,11,obj1,120,300,output_pairs/3Dp_180_M_WM/3Dp_180_M_WM_11_1_obj_12_120deg.png,output_pairs/3Dp_180_M_WM/3Dp_180_M_WM_11_2_obj_12_300deg.png,36,period,0,0,0,0,,,,,0,5,5,5,,,,,,,,,85.65550519997487,,,,,,,,,,,,,,,,,,,,,,,,,,,,,,,,,,,,,85.58925799996359,85.65550519997487,86.59461229998851,86.66123549995245,90.58428660000209,90.62255679996451,91.58893669996178,91.58893669996178,91.58893669996178,93.15662939997856,comma,0,1.562899499956984,None,93.15681959997164,93.19537529995432,93.19537529995432,95.18590260000201,4.0,['rshift'],95.18611229996895,95.21754169999622,97.1890318999649,[1.380528100009542],[None],,,,,,,,,,,,,,,,,,,,,,,,,,,,,,,,,,,,,,,,,,,,,,,,,,,,,,,,,,,,,,,,,,,,,,,,,,,,,,,,,,,,,,008,001,2024-06-03_11h57.10.031,ps,2023.2.3,30.001164047043453,2024-06-03 11h57.21.449406 -0400,
mini_blocks/3dp_wm_mini_block_1.xlsx,"*Break*
Entering the 3D WORKING MEMORY block
Rotation is Counter/Clockwise
Press <4> to continue",1,0,0,3D,p,180,False,True,24,obj1,160,340,output_pairs/3Dp_180_WM/3Dp_60_WM_24_1_obj_1_160deg.png,output_pairs/3Dp_180_WM/3Dp_60_WM_24_2_obj_1_340deg.png,505,comma,0,0,0,0,,,,,0,6,6,6,,,,,,,,,97.26788889995078,,,,,,,,,,,,,,,,,,,,,,,,,,,,,,,,,,,,,97.1892098999815,97.26788889995078,98.16123689996311,98.2845735999872,102.18425019999268,102.18425019999268,103.18423649994656,103.18423649994656,103.18423649994656,106.72317169996677,comma,1,3.5123354000388645,None,106.7233780999668,106.75577419996262,106.75577419996262,108.72603669995442,2.0,['period'],108.72618159995181,108.75574459997006,110.72258719999809,[1.6681765000103042],[None],108.75574459997006,108.75574459997006,110.78884429996833,,,,,,,,,,,,,,,,,,,,,,,,,,,,,,,,,,,,,,,,,,,,,,,,,,,,,,,,,,,,,,,,,,,,,,,,,,,,,,,,,,,008,001,2024-06-03_11h57.10.031,ps,2023.2.3,30.001164047043453,2024-06-03 11h57.21.449406 -0400,
mini_blocks/3dp_wm_mini_block_1.xlsx,"*Break*
Entering the 3D WORKING MEMORY block
Rotation is Counter/Clockwise
Press <4> to continue",1,0,0,3D,p,60,True,True,5,obj1,180,120,output_pairs/3Dp_60_M_WM/3Dp_60_M_WM_05_1_obj_14_180deg.png,output_pairs/3Dp_60_M_WM/3Dp_60_M_WM_05_2_obj_14_120deg.png,315,period,0,0,0,0,,,,,0,7,7,7,,,,,,,,,110.78884429996833,,,,,,,,,,,,,,,,,,,,,,,,,,,,,,,,,,,,,110.72274820000166,110.78884429996833,111.72809529997176,111.79516270000022,115.7555307999719,115.7555307999719,116.78464219998568,116.75134419999085,116.75134419999085,118.68523959995946,comma,0,1.9048537999624386,None,118.68544509995263,118.717525199987,118.717525199987,120.68824689998291,2.0,['period'],120.68839739996474,120.71775509999134,122.69491889997153,[1.2593739000149071],[None],120.71775509999134,120.71775509999134,,,,,,,,,,,,,,,,,,,,,,,,,,,,,,,,,,,,,,,,,,,,,,,,,,,,,,,,,,,,,,,,,,,,,,,,,,,,,,,,,,,,008,001,2024-06-03_11h57.10.031,ps,2023.2.3,30.001164047043453,2024-06-03 11h57.21.449406 -0400,
mini_blocks/3dp_wm_mini_block_1.xlsx,"*Break*
Entering the 3D WORKING MEMORY block
Rotation is Counter/Clockwise
Press <4> to continue",1,0,0,3D,p,0,False,True,29,obj4,100,100,output_pairs/3Dp_0_WM/3Dp_0_WM_29_1_obj_4_100deg.png,output_pairs/3Dp_0_WM/3Dp_0_WM_29_2_obj_4_100deg.png,101,comma,0,0,0,0,,,,,0,8,8,8,,,,,,,,,122.75054049998289,,,,,,,,,,,,,,,,,,,,,,,,,,,,,,,,,,,,,122.69509039999684,122.75054049998289,123.68902619997971,123.75559489999432,127.6890318999649,127.6890318999649,128.68900959996972,128.68900959996972,128.68900959996972,130.31857119995402,comma,1,1.6157741000060923,None,130.3187929999549,130.35093259997666,130.35093259997666,132.32207769999513,4.0,['rshift'],132.32222380000167,132.3511233999743,134.322559799999,[0.7860376000171527],[None],132.3511233999743,132.3511233999743,,,,,,,,,,,,,,,,,,,,,,,,,,,,,,,,,,,,,,,,,,,,,,,,,,,,,,,,,,,,,,,,,,,,,,,,,,,,,,,,,,,,008,001,2024-06-03_11h57.10.031,ps,2023.2.3,30.001164047043453,2024-06-03 11h57.21.449406 -0400,
mini_blocks/3dp_wm_mini_block_1.xlsx,"*Break*
Entering the 3D WORKING MEMORY block
Rotation is Counter/Clockwise
Press <4> to continue",1,0,0,3D,p,120,True,True,22,obj4,180,60,output_pairs/3Dp_120_M_WM/3Dp_120_M_WM_22_1_obj_4_180deg.png,output_pairs/3Dp_120_M_WM/3Dp_120_M_WM_22_2_obj_4_60deg.png,666,period,0,0,0,0,,,,,0,9,9,9,,,,,,,,,134.40491839998867,,,,,,,,,,,,,,,,,,,,,,,,,,,,,,,,,,,,,134.3227341999882,134.40491839998867,135.3181994999759,135.42822739999974,139.32231519999914,139.32231519999914,140.3514038999565,140.31802969996352,140.31802969996352,142.9852626999491,comma,0,2.650939599960111,None,142.9854701999575,143.01782189996447,143.01782189996447,144.98856109997723,2.0,['period'],144.98873819998698,145.02234349999344,147.01816119998693,[0.8877292000106536],[None],145.02234349999344,145.02234349999344,,,,,,,,,,,,,,,,,,,,,,,,,,,,,,,,,,,,,,,,,,,,,,,,,,,,,,,,,,,,,,,,,,,,,,,,,,,,,,,,,,,,008,001,2024-06-03_11h57.10.031,ps,2023.2.3,30.001164047043453,2024-06-03 11h57.21.449406 -0400,
mini_blocks/3dp_wm_mini_block_1.xlsx,"*Break*
Entering the 3D WORKING MEMORY block
Rotation is Counter/Clockwise
Press <4> to continue",1,0,0,3D,p,0,True,True,31,obj8,100,100,output_pairs/3Dp_0_M_WM/3Dp_0_M_WM_31_1_obj_8_100deg.png,output_pairs/3Dp_0_M_WM/3Dp_0_M_WM_31_2_obj_8_100deg.png,524,period,0,0,0,0,,,,,0,10,10,10,,,,,,,,,147.0778610999696,,,,,,,,,,,,,,,,,,,,,,,,,,,,,,,,,,,,,147.0184455999988,147.0778610999696,147.9847839999711,148.0848034999799,151.98908489994938,151.98908489994938,153.02869489998557,152.99497849994805,152.99497849994805,157.48548949998803,comma,0,4.485690500005148,None,157.485695499985,157.51805579999927,157.51805579999927,159.49110919999657,2.0,['period'],159.4912552999449,159.52248729998246,161.51825949997874,[1.2271520999493077],[None],,,,,,,,,,,,,,,,,,,,,,,,,,,,,,,,,,,,,,,,,,,,,,,,,,,,,,,,,,,,,,,,,,,,,,,,,,,,,,,,,,,,,,008,001,2024-06-03_11h57.10.031,ps,2023.2.3,30.001164047043453,2024-06-03 11h57.21.449406 -0400,
mini_blocks/3dp_wm_mini_block_1.xlsx,"*Break*
Entering the 3D WORKING MEMORY block
Rotation is Counter/Clockwise
Press <4> to continue",1,0,0,3D,p,180,True,True,10,sm1,180,0,output_pairs/3Dp_180_M_WM/3Dp_180_M_WM_10_1_sm_1_180deg.png,output_pairs/3Dp_180_M_WM/3Dp_180_M_WM_10_2_sm_1_0deg.png,37,period,0,0,0,0,,,,,0,11,11,11,,,,,,,,,161.59593630000018,,,,,,,,,,,,,,,,,,,,,,,,,,,,,,,,,,,,,161.5185268999776,161.59593630000018,162.4848654999514,162.61813739995705,166.48910129995784,166.48910129995784,167.52850029995898,167.49524259997997,167.49524259997997,169.91887459997088,comma,0,2.4166642000200227,None,169.91908319998765,169.95130039996002,169.95130039996002,171.9244306999608,4.0,['rshift'],171.9246068999637,171.95593389996793,173.92246659996454,[1.2975059999735095],[None],,,,,,,,,,,,,,,,,,,,,,,,,,,,,,,,,,,,,,,,,,,,,,,,,,,,,,,,,,,,,,,,,,,,,,,,,,,,,,,,,,,,,,008,001,2024-06-03_11h57.10.031,ps,2023.2.3,30.001164047043453,2024-06-03 11h57.21.449406 -0400,
mini_blocks/3dp_wm_mini_block_1.xlsx,"*Break*
Entering the 3D WORKING MEMORY block
Rotation is Counter/Clockwise
Press <4> to continue",1,0,0,3D,p,0,False,True,10,sm5,320,320,output_pairs/3Dp_0_WM/3Dp_0_WM_10_1_sm_5_320deg.png,output_pairs/3Dp_0_WM/3Dp_0_WM_10_2_sm_5_320deg.png,119,comma,0,0,0,0,,,,,0,12,12,12,,,,,,,,,173.98756089998642,,,,,,,,,,,,,,,,,,,,,,,,,,,,,,,,,,,,,173.922659999982,173.98756089998642,174.9283974999562,174.99537099996815,178.92255599994678,178.9558247999521,179.92845719994511,179.92845719994511,179.92845719994511,181.28574369999114,comma,1,1.3515512000303715,None,181.28596149996156,181.31815929996083,181.31815929996083,183.28807819995563,4.0,['rshift'],183.28822089999449,183.31791109999176,185.28937309997855,[0.7791081999894232],[None],183.31791109999176,183.31791109999176,,,,,,,,,,,,,,,,,,,,,,,,,,,,,,,,,,,,,,,,,,,,,,,,,,,,,,,,,,,,,,,,,,,,,,,,,,,,,,,,,,,,008,001,2024-06-03_11h57.10.031,ps,2023.2.3,30.001164047043453,2024-06-03 11h57.21.449406 -0400,
mini_blocks/3dp_wm_mini_block_1.xlsx,"*Break*
Entering the 3D WORKING MEMORY block
Rotation is Counter/Clockwise
Press <4> to continue",1,0,0,3D,p,60,False,True,30,obj5,80,140,output_pairs/3Dp_60_WM/3Dp_60_WM_30_1_obj_5_80deg.png,output_pairs/3Dp_60_WM/3Dp_60_WM_30_2_obj_5_140deg.png,395,comma,0,0,0,0,,,,,0,13,13,13,,,,,,,,,185.35673169995425,,,,,,,,,,,,,,,,,,,,,,,,,,,,,,,,,,,,,185.28954469994642,185.35673169995425,186.29534089996014,186.3619839999592,190.2893250999623,190.32264469994698,191.2894047999871,191.2894047999871,191.2894047999871,197.25214879994746,comma,1,5.935352000000421,None,197.2523566999589,197.284530099947,197.284530099947,199.25563979998697,4.0,['rshift'],199.25579819997074,199.2845921999542,201.25612649996765,[1.012626799987629],[None],199.2845921999542,199.2845921999542,,,,,,,,,,,,,,,,,,,,,,,,,,,,,,,,,,,,,,,,,,,,,,,,,,,,,,,,,,,,,,,,,,,,,,,,,,,,,,,,,,,,008,001,2024-06-03_11h57.10.031,ps,2023.2.3,30.001164047043453,2024-06-03 11h57.21.449406 -0400,
mini_blocks/3dp_wm_mini_block_1.xlsx,"*Break*
Entering the 3D WORKING MEMORY block
Rotation is Counter/Clockwise
Press <4> to continue",1,0,0,3D,p,120,False,True,31,obj1,320,200,output_pairs/3Dp_120_WM/3Dp_120_WM_31_1_obj_1_320deg.png,output_pairs/3Dp_120_WM/3Dp_120_WM_31_2_obj_1_200deg.png,321,comma,0,0,0,0,,,,,0,14,14,14,,,,,,,,,201.33850779995555,,,,,,,,,,,,,,,,,,,,,,,,,,,,,,,,,,,,,201.25633119995473,201.33850779995555,202.25171589996899,202.351660299988,206.28479239996523,206.2514583999873,207.28926890000002,207.25603859999683,207.25603859999683,212.089938399964,period,0,4.825494199991226,None,212.09013629995752,212.12263769999845,212.12263769999845,214.0967726999661,2.0,['period'],214.09701709996443,214.12859029998071,216.11818269995274,[0.9512578999856487],[None],,,,,,,,,,,,,,,,,,,,,,,,,,,,,,,,,,,,,,,,,,,,,,,,,,,,,,,,,,,,,,,,,,,,,,,,,,,,,,,,,,,,,,008,001,2024-06-03_11h57.10.031,ps,2023.2.3,30.001164047043453,2024-06-03 11h57.21.449406 -0400,
mini_blocks/3dp_wm_mini_block_1.xlsx,"*Break*
Entering the 3D WORKING MEMORY block
Rotation is Counter/Clockwise
Press <4> to continue",1,0,0,3D,p,120,False,True,3,obj1,40,160,output_pairs/3Dp_120_WM/3Dp_120_WM_03_1_obj_11_40deg.png,output_pairs/3Dp_120_WM/3Dp_120_WM_03_2_obj_11_160deg.png,349,comma,0,0,0,0,,,,,0,15,15,15,,,,,,,,,216.2085452999454,,,,,,,,,,,,,,,,,,,,,,,,,,,,,,,,,,,,,216.11849389999406,216.2085452999454,217.0956298999954,217.22848179994617,221.08943369996268,221.12275199999567,222.09523589996388,222.09523589996388,222.09523589996388,224.71930199995404,comma,1,2.6102932000067085,None,224.71951470000204,224.75166469998658,224.75166469998658,226.72299609996844,2.0,['period'],226.7231410999666,226.75604289997136,228.7227811999619,[1.3616502999793738],[None],226.75604289997136,226.75604289997136,,,,,,,,,,,,,,,,,,,,,,,,,,,,,,,,,,,,,,,,,,,,,,,,,,,,,,,,,,,,,,,,,,,,,,,,,,,,,,,,,,,,008,001,2024-06-03_11h57.10.031,ps,2023.2.3,30.001164047043453,2024-06-03 11h57.21.449406 -0400,
mini_blocks/3dp_wm_mini_block_1.xlsx,"*Break*
Entering the 3D WORKING MEMORY block
Rotation is Counter/Clockwise
Press <4> to continue",1,0,0,,,,,,,,,,,,,,0,0,0,0,,,,,,,,,,,,,,,,,,,,,,,,,,,,,,,,,,,,,,,,,,,,,,,,,,,,,,,,,,,,,,,,,,,,,,,,,,,,,,,,,,228.72284309996758,228.756010699959,228.756010699959,236.75725589995272,4.0,['rshift'],[2.1967416999978013],[None],236.75752159999683,236.7575542999548,None,,,,,,,,,,,,,,,,,,,,,,,,,,,,,,,,,,,,,,,,,,,,,,,,,,,,,,,,,,,,,,,,,,,,,,,,008,001,2024-06-03_11h57.10.031,ps,2023.2.3,30.001164047043453,2024-06-03 11h57.21.449406 -0400,
mini_blocks/2d_single_mini_block_3.xlsx,"*Break*
Entering the 2D SIMULTANEOUS block
Rotation is Counter/Clockwise
Press <4> to continue",0,1,0,2D,None,60,True,False,None,obj6,100,160,output_pairs/2D_60m/2D_60m_obj_6_100_to_160deg.png,None,544,period,0,1,1,1,0,0,0,0,,,,,,,,,,,,,239.92359689995646,,,,,,,,,,,,,,,,,,,,,,,,,,,,,,236.75773269997444,236.7889610999846,236.7889610999846,239.78600419999566,rshift,2.9638327000429854,None,,,,,,,,,,,,,,,249.78576099994825,249.81816029996844,249.81816029996844,251.78911259997403,None,None,251.78923199995188,251.82293179997941,253.79560649994528,,,251.82293179997941,251.82293179997941,,,,,,,,,,,,,239.7927029999555,239.92359689995646,240.79562109999824,240.79562109999824,240.918036499992,249.81816029996844,249.81816029996844,249.7855212999857,None,0,,,,,,,,,,,,,,,,,,,,,,,,,,,,,,,,,,,,,,,,,,,,,,,,,,,,,,,,,,,,,,008,001,2024-06-03_11h57.10.031,ps,2023.2.3,30.001164047043453,2024-06-03 11h57.21.449406 -0400,
mini_blocks/2d_single_mini_block_3.xlsx,"*Break*
Entering the 2D SIMULTANEOUS block
Rotation is Counter/Clockwise
Press <4> to continue",0,1,0,2D,None,0,False,False,None,sm1,0,None,output_pairs/2D_0/2D_0_SM1_0deg.png,None,2012,comma,0,1,1,1,0,1,1,1,,,,,,,,,,,,,253.8488468999858,,,,,,,,,,,,,,,,,,,,,,,,,,,,,,,,,,,,,,,,,,,,,,,,,,,256.619401199976,256.6516106999479,256.6516106999479,258.62213109998265,4.0,['rshift'],258.62234949995764,258.6517312999931,260.6289504999877,[0.8208939000032842],[None],258.6517312999931,258.6517312999931,,,,,,,,,,,,,253.79584439995233,253.8488468999858,254.78566269995645,254.78566269995645,254.8518708999618,,,256.619128499995,comma,1,1.815328299999237,None,,,,,,,,,,,,,,,,,,,,,,,,,,,,,,,,,,,,,,,,,,,,,,,,,,,,,,,,,,,,008,001,2024-06-03_11h57.10.031,ps,2023.2.3,30.001164047043453,2024-06-03 11h57.21.449406 -0400,
mini_blocks/2d_single_mini_block_3.xlsx,"*Break*
Entering the 2D SIMULTANEOUS block
Rotation is Counter/Clockwise
Press <4> to continue",0,1,0,2D,None,0,False,False,None,obj9,60,None,output_pairs/2D_0/2D_0_obj_9_60deg.png,None,2000,comma,0,1,1,1,0,2,2,2,,,,,,,,,,,,,260.6816695999587,,,,,,,,,,,,,,,,,,,,,,,,,,,,,,,,,,,,,,,,,,,,,,,,,,,262.85680179996416,262.8957433999749,262.8957433999749,264.8867381999735,4.0,['rshift'],264.88689199998043,264.9182282999973,266.88983079994796,[0.5530825000023469],[None],,,,,,,,,,,,,,,260.62916769995354,260.6816695999587,261.61856219999027,261.61856219999027,261.6892585999449,,,262.8565938999527,comma,1,1.2213837000308558,None,,,,,,,,,,,,,,,,,,,,,,,,,,,,,,,,,,,,,,,,,,,,,,,,,,,,,,,,,,,,008,001,2024-06-03_11h57.10.031,ps,2023.2.3,30.001164047043453,2024-06-03 11h57.21.449406 -0400,
mini_blocks/2d_single_mini_block_3.xlsx,"*Break*
Entering the 2D SIMULTANEOUS block
Rotation is Counter/Clockwise
Press <4> to continue",0,1,0,2D,None,180,True,False,None,obj1,300,120,output_pairs/2D_180m/2D_180m_obj_13_300_to_120deg.png,None,1365,period,0,1,1,1,0,3,3,3,,,,,,,,,,,,,266.9291004999541,,,,,,,,,,,,,,,,,,,,,,,,,,,,,,,,,,,,,,,,,,,,,,,,,,,272.8859248999506,272.9183881999925,272.9183881999925,274.8912277999916,2.0,['period'],274.89137289999053,274.92291179997846,276.88965129997814,[1.1148200000170618],[None],,,,,,,,,,,,,,,266.89000569999916,266.9291004999541,267.89551529998425,267.89551529998425,267.91859969997313,,,272.88571219996084,comma,0,4.9619455999927595,None,,,,,,,,,,,,,,,,,,,,,,,,,,,,,,,,,,,,,,,,,,,,,,,,,,,,,,,,,,,,008,001,2024-06-03_11h57.10.031,ps,2023.2.3,30.001164047043453,2024-06-03 11h57.21.449406 -0400,
mini_blocks/2d_single_mini_block_3.xlsx,"*Break*
Entering the 2D SIMULTANEOUS block
Rotation is Counter/Clockwise
Press <4> to continue",0,1,0,2D,None,120,True,False,None,sm5,300,60,output_pairs/2D_120m/2D_120m_SM5_300_to_60deg.png,None,1403,period,0,1,1,1,0,4,4,4,,,,,,,,,,,,,276.93770889996085,,,,,,,,,,,,,,,,,,,,,,,,,,,,,,,,,,,,,,,,,,,,,,,,,,,281.38566899998114,281.41831629996886,281.41831629996886,283.3894787999452,4.0,['rshift'],283.389623199997,283.4184825999546,285.3899421999813,[0.7745818000403233],[None],283.4184825999546,283.4184825999546,,,,,,,,,,,,,276.8898467999534,276.93770889996085,277.89560099999653,277.89560099999653,277.95630949997576,,,281.38546709995717,comma,0,3.4817390000098385,None,,,,,,,,,,,,,,,,,,,,,,,,,,,,,,,,,,,,,,,,,,,,,,,,,,,,,,,,,,,,008,001,2024-06-03_11h57.10.031,ps,2023.2.3,30.001164047043453,2024-06-03 11h57.21.449406 -0400,
mini_blocks/2d_single_mini_block_3.xlsx,"*Break*
Entering the 2D SIMULTANEOUS block
Rotation is Counter/Clockwise
Press <4> to continue",0,1,0,2D,None,60,False,False,None,obj6,320,20,output_pairs/2D_60/2D_60_obj_6_320_to_20deg.png,None,959,comma,0,1,1,1,0,5,5,5,,,,,,,,,,,,,285.43745199998375,,,,,,,,,,,,,,,,,,,,,,,,,,,,,,,,,,,,,,,,,,,,,,,,,,,292.7530427999445,292.7853455999866,292.7853455999866,294.7554906999576,2.0,['period'],294.7556430999539,294.7849199999473,296.7565007999656,[1.2554177999845706],[None],294.7849199999473,294.7849199999473,,,,,,,,,,,,,285.39012989995535,285.43745199998375,286.3958320999518,286.3958320999518,286.45585469994694,,,292.7528293999494,comma,1,6.349619100044947,None,,,,,,,,,,,,,,,,,,,,,,,,,,,,,,,,,,,,,,,,,,,,,,,,,,,,,,,,,,,,008,001,2024-06-03_11h57.10.031,ps,2023.2.3,30.001164047043453,2024-06-03 11h57.21.449406 -0400,
mini_blocks/2d_single_mini_block_3.xlsx,"*Break*
Entering the 2D SIMULTANEOUS block
Rotation is Counter/Clockwise
Press <4> to continue",0,1,0,2D,None,120,True,False,None,obj7,280,40,output_pairs/2D_120m/2D_120m_obj_7_280_to_40deg.png,None,1407,period,0,1,1,1,0,6,6,6,,,,,,,,,,,,,296.82579579995945,,,,,,,,,,,,,,,,,,,,,,,,,,,,,,,,,,,,,,,,,,,,,,,,,,,301.586564199999,301.618549399951,301.618549399951,303.5914952000021,4.0,['rshift'],303.59164929995313,303.6231829999597,305.61881649994757,[1.6465656000073068],[None],,,,,,,,,,,,,,,296.7566934999777,296.82579579995945,297.7565437000012,297.7565437000012,297.856144499965,,,301.58625149994623,period,1,3.820546099974308,None,,,,,,,,,,,,,,,,,,,,,,,,,,,,,,,,,,,,,,,,,,,,,,,,,,,,,,,,,,,,008,001,2024-06-03_11h57.10.031,ps,2023.2.3,30.001164047043453,2024-06-03 11h57.21.449406 -0400,
mini_blocks/2d_single_mini_block_3.xlsx,"*Break*
Entering the 2D SIMULTANEOUS block
Rotation is Counter/Clockwise
Press <4> to continue",0,1,0,2D,None,120,False,False,None,sm4,0,120,output_pairs/2D_120/2D_120_SM4_0_to_120deg.png,None,1116,comma,0,1,1,1,0,7,7,7,,,,,,,,,,,,,305.66804489999777,,,,,,,,,,,,,,,,,,,,,,,,,,,,,,,,,,,,,,,,,,,,,,,,,,,315.25303759996314,315.28514959994936,315.28514959994936,317.2580654999474,2.0,['period'],317.25821859994903,317.289716499974,319.2624501999817,[0.9480593000189401],[None],,,,,,,,,,,,,,,305.619128499995,305.66804489999777,306.58544859994436,306.58544859994436,306.68548639997607,,,315.2528255999787,period,0,8.647867100022268,None,,,,,,,,,,,,,,,,,,,,,,,,,,,,,,,,,,,,,,,,,,,,,,,,,,,,,,,,,,,,008,001,2024-06-03_11h57.10.031,ps,2023.2.3,30.001164047043453,2024-06-03 11h57.21.449406 -0400,
mini_blocks/2d_single_mini_block_3.xlsx,"*Break*
Entering the 2D SIMULTANEOUS block
Rotation is Counter/Clockwise
Press <4> to continue",0,1,0,2D,None,0,True,False,None,obj8,220,None,output_pairs/2D_0m/2D_0m_obj_8_220deg.png,None,1126,period,0,1,1,1,0,8,8,8,,,,,,,,,,,,,319.347982199979,,,,,,,,,,,,,,,,,,,,,,,,,,,,,,,,,,,,,,,,,,,,,,,,,,,325.69059709995054,325.71882639999967,325.71882639999967,327.68939449999016,2.0,['period'],327.689553299977,327.7186798999901,329.6902973999968,[1.5228101999964565],[None],327.7186798999901,327.7186798999901,329.7376284999773,,,,,,,,,,,,319.26262229995336,319.347982199979,320.2521889999625,320.2521889999625,320.3522485999856,,,325.6903975000023,comma,0,5.436135900032241,None,,,,,,,,,,,,,,,,,,,,,,,,,,,,,,,,,,,,,,,,,,,,,,,,,,,,,,,,,,,,008,001,2024-06-03_11h57.10.031,ps,2023.2.3,30.001164047043453,2024-06-03 11h57.21.449406 -0400,
mini_blocks/2d_single_mini_block_3.xlsx,"*Break*
Entering the 2D SIMULTANEOUS block
Rotation is Counter/Clockwise
Press <4> to continue",0,1,0,2D,None,60,True,False,None,obj1,220,280,output_pairs/2D_60m/2D_60m_obj_12_220_to_280deg.png,None,564,period,0,1,1,1,0,9,9,9,,,,,,,,,,,,,329.7376284999773,,,,,,,,,,,,,,,,,,,,,,,,,,,,,,,,,,,,,,,,,,,,,,,,,,,338.7198042999953,338.7522206999711,338.7522206999711,340.7229433999746,2.0,['period'],340.7230901999865,340.756587699987,342.7231633999618,[0.5623631000053138],[None],340.756587699987,340.756587699987,,,,,,,,,,,,,329.6904760999605,329.7376284999773,330.69589059997816,330.69589059997816,330.7522764999885,,,338.719580999983,comma,0,8.00905240001157,None,,,,,,,,,,,,,,,,,,,,,,,,,,,,,,,,,,,,,,,,,,,,,,,,,,,,,,,,,,,,008,001,2024-06-03_11h57.10.031,ps,2023.2.3,30.001164047043453,2024-06-03 11h57.21.449406 -0400,
mini_blocks/2d_single_mini_block_3.xlsx,"*Break*
Entering the 2D SIMULTANEOUS block
Rotation is Counter/Clockwise
Press <4> to continue",0,1,0,2D,None,180,True,False,None,obj7,20,200,output_pairs/2D_180m/2D_180m_obj_7_20_to_200deg.png,None,1372,period,0,1,1,1,0,10,10,10,,,,,,,,,,,,,342.77460679999785,,,,,,,,,,,,,,,,,,,,,,,,,,,,,,,,,,,,,,,,,,,,,,,,,,,352.68597359996056,352.7519321999862,352.7519321999862,354.7227417999529,1.0,['comma'],354.7229004999972,354.75658419996034,356.7524131999817,[0.8897827000473626],[None],354.75658419996034,354.75658419996034,,,,,,,,,,,,,342.7233470999636,342.77460679999785,343.7190425999579,343.7190425999579,343.7895253999741,352.7186303999624,352.7186303999624,352.68578499997966,None,0,,,,,,,,,,,,,,,,,,,,,,,,,,,,,,,,,,,,,,,,,,,,,,,,,,,,,,,,,,,,,,008,001,2024-06-03_11h57.10.031,ps,2023.2.3,30.001164047043453,2024-06-03 11h57.21.449406 -0400,
mini_blocks/2d_single_mini_block_3.xlsx,"*Break*
Entering the 2D SIMULTANEOUS block
Rotation is Counter/Clockwise
Press <4> to continue",0,1,0,2D,None,120,False,False,None,obj1,100,220,output_pairs/2D_120/2D_120_obj_1_100_to_220deg.png,None,1097,comma,0,1,1,1,0,11,11,11,,,,,,,,,,,,,356.7993439999991,,,,,,,,,,,,,,,,,,,,,,,,,,,,,,,,,,,,,,,,,,,,,,,,,,,364.9865107999649,365.0186911999481,365.0186911999481,366.990146199998,2.0,['period'],366.9903010999551,367.0186676000012,368.99027019995265,[1.9021068000001833],[None],367.0186676000012,367.0186676000012,,,,,,,,,,,,,356.7526788999676,356.7993439999991,357.7232515999931,357.7232515999931,357.81899959995644,,,364.98629129998153,period,0,7.245936600025743,None,,,,,,,,,,,,,,,,,,,,,,,,,,,,,,,,,,,,,,,,,,,,,,,,,,,,,,,,,,,,008,001,2024-06-03_11h57.10.031,ps,2023.2.3,30.001164047043453,2024-06-03 11h57.21.449406 -0400,
mini_blocks/2d_single_mini_block_3.xlsx,"*Break*
Entering the 2D SIMULTANEOUS block
Rotation is Counter/Clockwise
Press <4> to continue",0,1,0,2D,None,180,False,False,None,obj8,320,140,output_pairs/2D_180/2D_180_obj_8_320_to_140deg.png,None,1079,comma,0,1,1,1,0,12,12,12,,,,,,,,,,,,,369.03961779997917,,,,,,,,,,,,,,,,,,,,,,,,,,,,,,,,,,,,,,,,,,,,,,,,,,,377.0908089999575,377.123266999959,377.123266999959,379.1208471999853,2.0,['period'],379.12101389997406,379.15207809995627,381.123623099993,[0.6296466999920085],[None],,,,,,,,,,,,,,,368.9904581999872,369.03961779997917,369.9901753999875,369.9901753999875,370.0566069999477,,,377.09060139994835,comma,1,7.067033400002401,None,,,,,,,,,,,,,,,,,,,,,,,,,,,,,,,,,,,,,,,,,,,,,,,,,,,,,,,,,,,,008,001,2024-06-03_11h57.10.031,ps,2023.2.3,30.001164047043453,2024-06-03 11h57.21.449406 -0400,
mini_blocks/2d_single_mini_block_3.xlsx,"*Break*
Entering the 2D SIMULTANEOUS block
Rotation is Counter/Clockwise
Press <4> to continue",0,1,0,2D,None,180,False,False,None,sm3,20,200,output_pairs/2D_180/2D_180_SM3_20_to_200deg.png,None,1060,comma,0,1,1,1,0,13,13,13,,,,,,,,,,,,,381.1705147999455,,,,,,,,,,,,,,,,,,,,,,,,,,,,,,,,,,,,,,,,,,,,,,,,,,,388.7200215999619,388.75201039999956,388.75201039999956,390.7251676999731,None,None,390.7252569999546,390.756675099954,392.7295039999881,,,,,,,,,,,,,,,,,381.12379469996085,381.1705147999455,382.09615369996754,382.09615369996754,382.1957240999909,,,388.7198083999683,period,0,6.600211900018621,None,,,,,,,,,,,,,,,,,,,,,,,,,,,,,,,,,,,,,,,,,,,,,,,,,,,,,,,,,,,,008,001,2024-06-03_11h57.10.031,ps,2023.2.3,30.001164047043453,2024-06-03 11h57.21.449406 -0400,
mini_blocks/2d_single_mini_block_3.xlsx,"*Break*
Entering the 2D SIMULTANEOUS block
Rotation is Counter/Clockwise
Press <4> to continue",0,1,0,2D,None,60,False,False,None,sm1,100,160,output_pairs/2D_60/2D_60_SM1_100_to_160deg.png,None,933,comma,0,1,1,1,0,14,14,14,,,,,,,,,,,,,392.77629289997276,,,,,,,,,,,,,,,,,,,,,,,,,,,,,,,,,,,,,,,,,,,,,,,,,,,401.1575627999846,401.1900382999447,401.1900382999447,403.18717409996316,2.0,['period'],403.1873263999587,403.21891830000095,405.1903480999754,[1.0342836999916472],[None],,,,,,,,,,,,,,,392.72968229994876,392.77629289997276,393.72341909998795,393.72341909998795,393.7857458999497,,,401.1573586000013,comma,1,7.4059980000020005,None,,,,,,,,,,,,,,,,,,,,,,,,,,,,,,,,,,,,,,,,,,,,,,,,,,,,,,,,,,,,008,001,2024-06-03_11h57.10.031,ps,2023.2.3,30.001164047043453,2024-06-03 11h57.21.449406 -0400,
mini_blocks/2d_single_mini_block_3.xlsx,"*Break*
Entering the 2D SIMULTANEOUS block
Rotation is Counter/Clockwise
Press <4> to continue",0,1,0,2D,None,0,True,False,None,obj1,180,None,output_pairs/2D_0m/2D_0m_obj_13_180deg.png,None,1145,period,0,1,1,1,0,15,15,15,,,,,,,,,,,,,405.22978069999954,,,,,,,,,,,,,,,,,,,,,,,,,,,,,,,,,,,,,,,,,,,,,,,,,,,408.7862563999952,408.81899309996516,408.81899309996516,410.7899219999672,4.0,['rshift'],410.7901808999595,410.8235247999546,412.79015699995216,[0.7663747000042349],[None],410.8235247999546,410.8235247999546,,,,,,,,,,,,,405.19053599995095,405.22978069999954,406.16288469999563,406.16288469999563,406.2191630000016,,,408.7860195999965,comma,0,2.590140300046187,None,,,,,,,,,,,,,,,,,,,,,,,,,,,,,,,,,,,,,,,,,,,,,,,,,,,,,,,,,,,,008,001,2024-06-03_11h57.10.031,ps,2023.2.3,30.001164047043453,2024-06-03 11h57.21.449406 -0400,
mini_blocks/2d_single_mini_block_3.xlsx,"*Break*
Entering the 2D SIMULTANEOUS block
Rotation is Counter/Clockwise
Press <4> to continue",0,1,0,,,,,,,,,,,,,,0,1,1,1,,,,,,,,,,,,,,,,,,,,,,,,,,,,,,,,,,,,,,,,,,,,,,,,,,,,,,,,,,,,,,,,,,,,,,,,,,,,,,,,,,412.79655999998795,412.8192249999847,412.8192249999847,420.789414400002,4.0,['rshift'],[1.1099728000117466],[None],420.78956329997163,420.78958389995387,None,,,,,,,,,,,,,420.8189908999484,420.8189908999484,,,,,,,,,,,,,,,,,,,,,,,,,,,,,,,,,,,,,,,,,,,,,,,,,,,,,,,,,,008,001,2024-06-03_11h57.10.031,ps,2023.2.3,30.001164047043453,2024-06-03 11h57.21.449406 -0400,
mini_blocks/3dp_single_mini_block_2.xlsx,"*Break*
Entering the 3D SIMULTANEOUS block
Rotation is Counter/Clockwise
Press <4> to continue",0,1,0,3D,p,120,True,False,None,obj1,100,220,output_pairs/3Dp_120m/3Dp_120m_obj_1_100_to_220deg.png,None,2137,period,0,2,2,2,0,0,0,0,,,,,,,,,,,,,423.593325099966,,,,,,,,,,,,,,,,,,,,,,,,,,,,,,420.78970119997393,420.8189908999484,420.8189908999484,423.4910575999529,rshift,2.6465304999728687,None,,,,,,,,,,,,,,,431.68726389994845,431.71915499999886,431.71915499999886,433.6897655999637,1.0,['comma'],433.6900184999686,433.71943649998866,435.69033939996734,[0.8900491999811493],[None],433.71943649998866,433.71943649998866,,,,,,,,,,,,,423.51382329995977,423.593325099966,424.4964522999944,424.4964522999944,424.59572759998264,,,431.686783299956,period,1,7.16872090002289,None,,,,,,,,,,,,,,,,,,,,,,,,,,,,,,,,,,,,,,,,,,,,,,,,,,,,,,,,,,,,008,001,2024-06-03_11h57.10.031,ps,2023.2.3,30.001164047043453,2024-06-03 11h57.21.449406 -0400,
mini_blocks/3dp_single_mini_block_2.xlsx,"*Break*
Entering the 3D SIMULTANEOUS block
Rotation is Counter/Clockwise
Press <4> to continue",0,1,0,3D,p,120,True,False,None,obj1,320,80,output_pairs/3Dp_120m/3Dp_120m_obj_13_320_to_80deg.png,None,2129,period,0,2,2,2,0,1,1,1,,,,,,,,,,,,,435.73627159994794,,,,,,,,,,,,,,,,,,,,,,,,,,,,,,,,,,,,,,,,,,,,,,,,,,,444.29079249995993,444.3232375999796,444.3232375999796,446.32096299994737,2.0,['period'],446.3211321999552,446.35228809999535,448.3238937999704,[1.0371279999963008],[None],,,,,,,,,,,,,,,435.69063929998083,435.73627159994794,436.6964316999656,436.6964316999656,436.76191499998095,,,444.2905865999637,period,1,7.569254899979569,None,,,,,,,,,,,,,,,,,,,,,,,,,,,,,,,,,,,,,,,,,,,,,,,,,,,,,,,,,,,,008,001,2024-06-03_11h57.10.031,ps,2023.2.3,30.001164047043453,2024-06-03 11h57.21.449406 -0400,
mini_blocks/3dp_single_mini_block_2.xlsx,"*Break*
Entering the 3D SIMULTANEOUS block
Rotation is Counter/Clockwise
Press <4> to continue",0,1,0,3D,p,0,False,False,None,obj1,280,None,output_pairs/3Dp_0/3Dp_0_obj_14_280deg.png,None,2145,comma,0,2,2,2,0,2,2,2,,,,,,,,,,,,,448.3731761999661,,,,,,,,,,,,,,,,,,,,,,,,,,,,,,,,,,,,,,,,,,,,,,,,,,,452.6240804999834,452.65269599994645,452.65269599994645,454.6233340999461,4.0,['rshift'],454.62348039995413,454.65240599995013,456.6198430999648,[1.373303800006397],[None],454.65240599995013,454.65240599995013,456.65840689995093,,,,,,,,,,,,448.32408169994596,448.3731761999661,449.2860806999961,449.2860806999961,449.3952726999996,,,452.62386539997533,comma,1,3.3228463000268675,None,,,,,,,,,,,,,,,,,,,,,,,,,,,,,,,,,,,,,,,,,,,,,,,,,,,,,,,,,,,,008,001,2024-06-03_11h57.10.031,ps,2023.2.3,30.001164047043453,2024-06-03 11h57.21.449406 -0400,
mini_blocks/3dp_single_mini_block_2.xlsx,"*Break*
Entering the 3D SIMULTANEOUS block
Rotation is Counter/Clockwise
Press <4> to continue",0,1,0,3D,p,0,False,False,None,obj1,180,None,output_pairs/3Dp_0/3Dp_0_obj_10_180deg.png,None,2149,comma,0,2,2,2,0,3,3,3,,,,,,,,,,,,,456.65840689995093,,,,,,,,,,,,,,,,,,,,,,,,,,,,,,,,,,,,,,,,,,,,,,,,,,,461.82001409999793,461.8526046999614,461.8526046999614,463.8255131999613,4.0,['rshift'],463.8256616999861,463.8571139999549,465.85291699995287,[0.8768208000110462],[None],,,,,,,,,,,,,,,456.6200215999852,456.65840689995093,457.6238933999557,457.6238933999557,457.69012459996156,,,461.81980269995984,comma,1,4.19238119997317,None,,,,,,,,,,,,,,,,,,,,,,,,,,,,,,,,,,,,,,,,,,,,,,,,,,,,,,,,,,,,008,001,2024-06-03_11h57.10.031,ps,2023.2.3,30.001164047043453,2024-06-03 11h57.21.449406 -0400,
mini_blocks/3dp_single_mini_block_2.xlsx,"*Break*
Entering the 3D SIMULTANEOUS block
Rotation is Counter/Clockwise
Press <4> to continue",0,1,0,3D,p,0,False,False,None,obj9,260,None,output_pairs/3Dp_0/3Dp_0_obj_9_260deg.png,None,2150,comma,0,2,2,2,0,4,4,4,,,,,,,,,,,,,465.9179961999762,,,,,,,,,,,,,,,,,,,,,,,,,,,,,,,,,,,,,,,,,,,,,,,,,,,469.3202197999926,469.35240249999333,469.35240249999333,471.3256535999826,4.0,"['rshift', 'rshift']",471.3258634999511,471.35703359998297,473.352914099989,"[0.504995500028599, 0.7051849000272341]","[None, None]",,,,,,,,,,,,,,,465.85318979999283,465.9179961999762,466.8193623999832,466.8193623999832,466.9194540999597,,,469.32000729994616,comma,1,2.492922500008717,None,,,,,,,,,,,,,,,,,,,,,,,,,,,,,,,,,,,,,,,,,,,,,,,,,,,,,,,,,,,,008,001,2024-06-03_11h57.10.031,ps,2023.2.3,30.001164047043453,2024-06-03 11h57.21.449406 -0400,
mini_blocks/3dp_single_mini_block_2.xlsx,"*Break*
Entering the 3D SIMULTANEOUS block
Rotation is Counter/Clockwise
Press <4> to continue",0,1,0,3D,p,180,False,False,None,obj1,80,260,output_pairs/3Dp_180/3Dp_180_obj_12_80_to_260deg.png,None,764,comma,0,2,2,2,0,5,5,5,,,,,,,,,,,,,473.4000803999952,,,,,,,,,,,,,,,,,,,,,,,,,,,,,,,,,,,,,,,,,,,,,,,,,,,481.78702930000145,481.8191836999613,481.8191836999613,483.7922188999946,4.0,['rshift'],483.79236729996046,483.81961279996904,485.7866725999629,[0.6052515999763273],[None],,,485.833843899949,,,,,,,,,,,,473.35318899998674,473.4000803999952,474.31946169998264,474.31946169998264,474.4195735999965,,,481.78681759996107,comma,1,7.458225900016259,None,,,,,,,,,,,,,,,,,,,,,,,,,,,,,,,,,,,,,,,,,,,,,,,,,,,,,,,,,,,,008,001,2024-06-03_11h57.10.031,ps,2023.2.3,30.001164047043453,2024-06-03 11h57.21.449406 -0400,
mini_blocks/3dp_single_mini_block_2.xlsx,"*Break*
Entering the 3D SIMULTANEOUS block
Rotation is Counter/Clockwise
Press <4> to continue",0,1,0,3D,p,120,False,False,None,obj2,280,40,output_pairs/3Dp_120/3Dp_120_obj_2_280_to_40deg.png,None,729,comma,0,2,2,2,0,6,6,6,,,,,,,,,,,,,485.833843899949,,,,,,,,,,,,,,,,,,,,,,,,,,,,,,,,,,,,,,,,,,,,,,,,,,,494.7870034999796,494.8192493999959,494.8192493999959,496.7921547999722,1.0,['comma'],496.7923058999586,496.82381029997487,498.8196257999516,[1.0145440999767743],[None],,,,,,,,,,,,,,,485.7868650999735,485.833843899949,486.78620909998426,486.78620909998426,486.85284069995396,,,494.7867765999981,period,0,7.998916000011377,None,,,,,,,,,,,,,,,,,,,,,,,,,,,,,,,,,,,,,,,,,,,,,,,,,,,,,,,,,,,,008,001,2024-06-03_11h57.10.031,ps,2023.2.3,30.001164047043453,2024-06-03 11h57.21.449406 -0400,
mini_blocks/3dp_single_mini_block_2.xlsx,"*Break*
Entering the 3D SIMULTANEOUS block
Rotation is Counter/Clockwise
Press <4> to continue",0,1,0,3D,p,180,True,False,None,obj1,320,140,output_pairs/3Dp_180m/3Dp_180m_obj_10_320_to_140deg.png,None,2036,period,0,2,2,2,0,7,7,7,,,,,,,,,,,,,498.85815679997904,,,,,,,,,,,,,,,,,,,,,,,,,,,,,,,,,,,,,,,,,,,,,,,,,,,508.6202349999803,508.65268979995744,508.65268979995744,510.6233086999855,1.0,['comma'],510.62345969997114,510.6528000999824,512.6303485999815,[0.5794252000050619],[None],510.6528000999824,510.6528000999824,,,,,,,,,,,,,498.8198666999815,498.85815679997904,499.78618709999137,499.78618709999137,499.8862560999696,,,508.6200243999483,period,1,8.815055300015956,None,,,,,,,,,,,,,,,,,,,,,,,,,,,,,,,,,,,,,,,,,,,,,,,,,,,,,,,,,,,,008,001,2024-06-03_11h57.10.031,ps,2023.2.3,30.001164047043453,2024-06-03 11h57.21.449406 -0400,
mini_blocks/3dp_single_mini_block_2.xlsx,"*Break*
Entering the 3D SIMULTANEOUS block
Rotation is Counter/Clockwise
Press <4> to continue",0,1,0,3D,p,0,True,False,None,obj5,180,None,output_pairs/3Dp_0m/3Dp_0m_obj_5_180deg.png,None,1710,period,0,2,2,2,0,8,8,8,,,,,,,,,,,,,512.6840766999521,,,,,,,,,,,,,,,,,,,,,,,,,,,,,,,,,,,,,,,,,,,,,,,,,,,522.5867233999888,522.6194670999539,522.6194670999539,524.5941565999528,1.0,['comma'],524.5942969999742,524.6197553999955,526.5869840999949,[0.28588979999767616],[None],524.6197553999955,524.6197553999955,526.6331973999622,,,,,,,,,,,,512.6305651000002,512.6840766999521,513.6196837999742,513.6196837999742,513.6863183999667,522.6194670999539,522.6194670999539,522.5865674999659,None,0,,,,,,,,,,,,,,,,,,,,,,,,,,,,,,,,,,,,,,,,,,,,,,,,,,,,,,,,,,,,,,008,001,2024-06-03_11h57.10.031,ps,2023.2.3,30.001164047043453,2024-06-03 11h57.21.449406 -0400,
mini_blocks/3dp_single_mini_block_2.xlsx,"*Break*
Entering the 3D SIMULTANEOUS block
Rotation is Counter/Clockwise
Press <4> to continue",0,1,0,3D,p,120,True,False,None,obj9,220,340,output_pairs/3Dp_120m/3Dp_120m_obj_9_220_to_340deg.png,None,2117,period,0,2,2,2,0,9,9,9,,,,,,,,,,,,,526.6331973999622,,,,,,,,,,,,,,,,,,,,,,,,,,,,,,,,,,,,,,,,,,,,,,,,,,,535.1538269000011,535.1859562999452,535.1859562999452,537.1566069999826,2.0,['period'],537.1567529999884,537.186237899994,539.1576397999888,[1.144113800022751],[None],537.186237899994,537.186237899994,,,,,,,,,,,,,526.5871624999563,526.6331973999622,527.629921099986,527.629921099986,527.662991499994,,,535.153614699957,period,1,7.490345600002911,None,,,,,,,,,,,,,,,,,,,,,,,,,,,,,,,,,,,,,,,,,,,,,,,,,,,,,,,,,,,,008,001,2024-06-03_11h57.10.031,ps,2023.2.3,30.001164047043453,2024-06-03 11h57.21.449406 -0400,
mini_blocks/3dp_single_mini_block_2.xlsx,"*Break*
Entering the 3D SIMULTANEOUS block
Rotation is Counter/Clockwise
Press <4> to continue",0,1,0,3D,p,120,True,False,None,obj1,220,340,output_pairs/3Dp_120m/3Dp_120m_obj_11_220_to_340deg.png,None,2121,period,0,2,2,2,0,10,10,10,,,,,,,,,,,,,539.2064021999831,,,,,,,,,,,,,,,,,,,,,,,,,,,,,,,,,,,,,,,,,,,,,,,,,,,548.421057999949,548.4569831999834,548.4569831999834,550.4545712999534,1.0,['comma'],550.454726099968,550.4864577999688,552.4530514999642,[1.3763424000353552],[None],,,,,,,,,,,,,,,539.1578308999888,539.2064021999831,540.1632752000005,540.1632752000005,540.2292999999481,,,548.4208392999717,period,1,8.253752099990379,None,,,,,,,,,,,,,,,,,,,,,,,,,,,,,,,,,,,,,,,,,,,,,,,,,,,,,,,,,,,,008,001,2024-06-03_11h57.10.031,ps,2023.2.3,30.001164047043453,2024-06-03 11h57.21.449406 -0400,
mini_blocks/3dp_single_mini_block_2.xlsx,"*Break*
Entering the 3D SIMULTANEOUS block
Rotation is Counter/Clockwise
Press <4> to continue",0,1,0,3D,p,120,False,False,None,obj8,300,60,output_pairs/3Dp_120/3Dp_120_obj_8_300_to_60deg.png,None,707,comma,0,2,2,2,0,11,11,11,,,,,,,,,,,,,552.4993697999744,,,,,,,,,,,,,,,,,,,,,,,,,,,,,,,,,,,,,,,,,,,,,,,,,,,561.9541199999512,561.9863105999539,561.9863105999539,563.9592088999925,2.0,['period'],563.9594133999781,563.986571699963,565.9538585999981,[1.1024308999767527],[None],,,566.00088279997,,,,,,,,,,,,552.4532787999487,552.4993697999744,553.4243740999955,553.4243740999955,553.5238754999591,,,561.9539114999934,comma,1,8.495985000045039,None,,,,,,,,,,,,,,,,,,,,,,,,,,,,,,,,,,,,,,,,,,,,,,,,,,,,,,,,,,,,008,001,2024-06-03_11h57.10.031,ps,2023.2.3,30.001164047043453,2024-06-03 11h57.21.449406 -0400,
mini_blocks/3dp_single_mini_block_2.xlsx,"*Break*
Entering the 3D SIMULTANEOUS block
Rotation is Counter/Clockwise
Press <4> to continue",0,1,0,3D,p,60,False,False,None,obj4,280,340,output_pairs/3Dp_60/3Dp_60_obj_4_280_to_340deg.png,None,1619,comma,0,2,2,2,0,12,12,12,,,,,,,,,,,,,566.00088279997,,,,,,,,,,,,,,,,,,,,,,,,,,,,,,,,,,,,,,,,,,,,,,,,,,,573.8248810999794,573.8532611999544,573.8532611999544,575.8276795999845,2.0,['period'],575.8278243999812,575.8532471999642,577.8204519999563,[1.4918108000420034],[None],575.8532471999642,575.8532471999642,577.8577444999828,,,,,,,,,,,,565.9540355999488,566.00088279997,566.9635375999496,566.9635375999496,567.0292140999809,,,573.8246764999931,comma,1,6.853661000030115,None,,,,,,,,,,,,,,,,,,,,,,,,,,,,,,,,,,,,,,,,,,,,,,,,,,,,,,,,,,,,008,001,2024-06-03_11h57.10.031,ps,2023.2.3,30.001164047043453,2024-06-03 11h57.21.449406 -0400,
mini_blocks/3dp_single_mini_block_2.xlsx,"*Break*
Entering the 3D SIMULTANEOUS block
Rotation is Counter/Clockwise
Press <4> to continue",0,1,0,3D,p,60,False,False,None,obj4,280,340,output_pairs/3Dp_60/3Dp_60_obj_4_280_to_340deg.png,None,1619,comma,0,2,2,2,0,13,13,13,,,,,,,,,,,,,577.8577444999828,,,,,,,,,,,,,,,,,,,,,,,,,,,,,,,,,,,,,,,,,,,,,,,,,,,586.0968255999614,586.1293347999454,586.1293347999454,588.1216030999785,2.0,['period'],588.1217595999478,588.1530821999768,590.1202257999685,[0.7998617000412196],[None],,,,,,,,,,,,,,,577.8206400999916,577.8577444999828,578.8300217999495,578.8300217999495,578.8626920999959,,,586.0966178999515,comma,1,7.251273300033063,None,,,,,,,,,,,,,,,,,,,,,,,,,,,,,,,,,,,,,,,,,,,,,,,,,,,,,,,,,,,,008,001,2024-06-03_11h57.10.031,ps,2023.2.3,30.001164047043453,2024-06-03 11h57.21.449406 -0400,
mini_blocks/3dp_single_mini_block_2.xlsx,"*Break*
Entering the 3D SIMULTANEOUS block
Rotation is Counter/Clockwise
Press <4> to continue",0,1,0,3D,p,180,False,False,None,obj7,140,320,output_pairs/3Dp_180/3Dp_180_obj_7_140_to_320deg.png,None,763,comma,0,2,2,2,0,14,14,14,,,,,,,,,,,,,590.167774099973,,,,,,,,,,,,,,,,,,,,,,,,,,,,,,,,,,,,,,,,,,,,,,,,,,,600.0873360999976,600.1197557999985,600.1197557999985,602.0909187999787,2.0,['period'],602.0910663999966,602.1243112999946,604.1200641999603,[1.2010089000104927],[None],602.1243112999946,602.1243112999946,,,,,,,,,,,,,590.1204469999648,590.167774099973,591.1200394999469,591.1200394999469,591.1866970999981,600.1197557999985,600.1197557999985,600.0871112999739,None,0,,,,,,,,,,,,,,,,,,,,,,,,,,,,,,,,,,,,,,,,,,,,,,,,,,,,,,,,,,,,,,008,001,2024-06-03_11h57.10.031,ps,2023.2.3,30.001164047043453,2024-06-03 11h57.21.449406 -0400,
mini_blocks/3dp_single_mini_block_2.xlsx,"*Break*
Entering the 3D SIMULTANEOUS block
Rotation is Counter/Clockwise
Press <4> to continue",0,1,0,3D,p,0,False,False,None,obj1,40,None,output_pairs/3Dp_0/3Dp_0_obj_13_40deg.png,None,2153,comma,0,2,2,2,0,15,15,15,,,,,,,,,,,,,604.1669631999684,,,,,,,,,,,,,,,,,,,,,,,,,,,,,,,,,,,,,,,,,,,,,,,,,,,607.0540154999471,607.0865061999648,607.0865061999648,609.0595482999925,4.0,['rshift'],609.0597045999602,609.0910179999773,611.0867900999729,[1.0817118000122719],[None],,,,,,,,,,,,,,,604.1203151999507,604.1669631999684,605.1303797999863,605.1303797999863,605.196180399973,,,607.0538220999879,comma,1,1.8945773000014015,None,,,,,,,,,,,,,,,,,,,,,,,,,,,,,,,,,,,,,,,,,,,,,,,,,,,,,,,,,,,,008,001,2024-06-03_11h57.10.031,ps,2023.2.3,30.001164047043453,2024-06-03 11h57.21.449406 -0400,
mini_blocks/3dp_single_mini_block_2.xlsx,"*Break*
Entering the 3D SIMULTANEOUS block
Rotation is Counter/Clockwise
Press <4> to continue",0,1,0,,,,,,,,,,,,,,0,2,2,2,,,,,,,,,,,,,,,,,,,,,,,,,,,,,,,,,,,,,,,,,,,,,,,,,,,,,,,,,,,,,,,,,,,,,,,,,,,,,,,,,,611.1010818999493,611.120017899957,611.120017899957,619.058973999985,4.0,"['rshift', 'rshift']","[1.200216899975203, 1.7051323999767192]","[None, None]",619.059119499987,619.059142699989,None,,,,,,,,,,,,,,,,,,,,,,,,,,,,,,,,,,,,,,,,,,,,,,,,,,,,,,,,,,,,,,,,,,,,,,,,008,001,2024-06-03_11h57.10.031,ps,2023.2.3,30.001164047043453,2024-06-03 11h57.21.449406 -0400,
mini_blocks/2d_wm_mini_block_1.xlsx,"*Break*
Entering the 2D WORKING MEMORY block
Rotation is Counter/Clockwise
Press <4> to continue
               ",1,0,1,2D,None,60,True,True,31,obj6,340,40,output_pairs/2D_60_M_WM/2D_60_M_WM_31_1_obj_6_340deg.png,output_pairs/2D_60_M_WM/2D_60_M_WM_31_2_obj_6_40deg.png,639,period,0,3,3,3,,,,,0,0,0,0,,,,,,,,,621.2851979999687,,,,,,,,,,,,,,,,,,,,,,,,,,,,,,619.0592578999931,619.0905898999772,619.0905898999772,621.1916729999939,rshift,2.0863312000292353,None,621.2043904999737,621.2851979999687,622.1915104999789,622.2867307999986,626.2199073999655,626.2199073999655,627.2245476999669,627.2245476999669,627.2245476999669,633.7644310999895,comma,0,6.536396600014996,None,633.7647466999479,633.7971959999995,633.7971959999995,635.7884072999586,None,['period'],635.788698099961,635.8197819999768,637.7913254000014,[1.723278500023298],[None],,,,,,,,,,,,,,,,,,,,,,,,,,,,,,,,,,,,,,,,,,,,,,,,,,,,,,,,,,,,,,,,,,,,,,,,,,,,,,,,,,,,,,008,001,2024-06-03_11h57.10.031,ps,2023.2.3,30.001164047043453,2024-06-03 11h57.21.449406 -0400,
mini_blocks/2d_wm_mini_block_1.xlsx,"*Break*
Entering the 2D WORKING MEMORY block
Rotation is Counter/Clockwise
Press <4> to continue
               ",1,0,1,2D,None,180,False,True,13,obj2,160,340,output_pairs/2D_180_WM/2D_180_WM_13_1_obj_2_160deg.png,output_pairs/2D_180_WM/2D_180_WM_13_2_obj_2_340deg.png,723,comma,0,3,3,3,,,,,0,1,1,1,,,,,,,,,637.882501999964,,,,,,,,,,,,,,,,,,,,,,,,,,,,,,,,,,,,,637.791502899956,637.882501999964,638.7868564999662,638.8913878999883,642.7865460999892,642.7865460999892,643.7912528999732,643.7912528999732,643.7912528999732,651.1542618999956,period,0,7.329727899981663,None,651.154479299963,651.1866537999595,651.1866537999595,653.1570874999743,2.0,['period'],653.1572375999531,653.1866928999661,655.1641261999612,[1.00575219996972],[None],653.1866928999661,653.1866928999661,,,,,,,,,,,,,,,,,,,,,,,,,,,,,,,,,,,,,,,,,,,,,,,,,,,,,,,,,,,,,,,,,,,,,,,,,,,,,,,,,,,,008,001,2024-06-03_11h57.10.031,ps,2023.2.3,30.001164047043453,2024-06-03 11h57.21.449406 -0400,
mini_blocks/2d_wm_mini_block_1.xlsx,"*Break*
Entering the 2D WORKING MEMORY block
Rotation is Counter/Clockwise
Press <4> to continue
               ",1,0,1,2D,None,60,False,True,13,obj6,320,20,output_pairs/2D_60_WM/2D_60_WM_13_1_obj_6_320deg.png,output_pairs/2D_60_WM/2D_60_WM_13_2_obj_6_20deg.png,129,comma,0,3,3,3,,,,,0,2,2,2,,,,,,,,,655.2315981999855,,,,,,,,,,,,,,,,,,,,,,,,,,,,,,,,,,,,,655.1643017999595,655.2315981999855,656.1536329999799,656.2535131999757,660.1868021999835,660.1533907999983,661.1912537999451,661.1580027999589,661.1580027999589,663.0887321999762,comma,1,1.9234970000106841,None,663.0889310999773,663.1198756999802,663.1198756999802,665.0908436999889,4.0,['rshift'],665.0910054999986,665.1199662999716,667.0972646999871,[1.113405900017824],[None],665.1199662999716,665.1199662999716,,,,,,,,,,,,,,,,,,,,,,,,,,,,,,,,,,,,,,,,,,,,,,,,,,,,,,,,,,,,,,,,,,,,,,,,,,,,,,,,,,,,008,001,2024-06-03_11h57.10.031,ps,2023.2.3,30.001164047043453,2024-06-03 11h57.21.449406 -0400,
mini_blocks/2d_wm_mini_block_1.xlsx,"*Break*
Entering the 2D WORKING MEMORY block
Rotation is Counter/Clockwise
Press <4> to continue
               ",1,0,1,2D,None,120,True,True,28,obj6,260,20,output_pairs/2D_120_M_WM/2D_120_M_WM_28_1_obj_6_260deg.png,output_pairs/2D_120_M_WM/2D_120_M_WM_28_2_obj_6_20deg.png,234,period,0,3,3,3,,,,,0,3,3,3,,,,,,,,,667.1815796999726,,,,,,,,,,,,,,,,,,,,,,,,,,,,,,,,,,,,,667.0974479999859,667.1815796999726,668.120165899978,668.1870122999535,672.1201112999697,672.1201112999697,673.1246938999975,673.1246938999975,673.1246938999975,678.4587870999821,period,1,5.316705500008538,None,678.4589979999582,678.4870778999757,678.4870778999757,680.4571389999473,2.0,['period'],680.4573302999488,680.4865435999818,682.4585124999867,[0.8177613000152633],[None],680.4865435999818,680.4865435999818,682.5437391999876,,,,,,,,,,,,,,,,,,,,,,,,,,,,,,,,,,,,,,,,,,,,,,,,,,,,,,,,,,,,,,,,,,,,,,,,,,,,,,,,,,,008,001,2024-06-03_11h57.10.031,ps,2023.2.3,30.001164047043453,2024-06-03 11h57.21.449406 -0400,
mini_blocks/2d_wm_mini_block_1.xlsx,"*Break*
Entering the 2D WORKING MEMORY block
Rotation is Counter/Clockwise
Press <4> to continue
               ",1,0,1,2D,None,60,True,True,5,obj1,160,220,output_pairs/2D_60_M_WM/2D_60_M_WM_05_1_obj_11_160deg.png,output_pairs/2D_60_M_WM/2D_60_M_WM_05_2_obj_11_220deg.png,618,period,0,3,3,3,,,,,0,4,4,4,,,,,,,,,682.5437391999876,,,,,,,,,,,,,,,,,,,,,,,,,,,,,,,,,,,,,682.4587007999653,682.5437391999876,683.4581312999944,683.5582106999937,687.4537738999934,687.4537738999934,688.4580722999526,688.4580722999526,688.4580722999526,692.8256311999867,period,1,4.350801000022329,None,692.825889699976,692.8580322999624,692.8580322999624,694.855009299994,2.0,['period'],694.8551625999971,694.886667899962,696.8537751999684,[0.8064500999753363],[None],,,,,,,,,,,,,,,,,,,,,,,,,,,,,,,,,,,,,,,,,,,,,,,,,,,,,,,,,,,,,,,,,,,,,,,,,,,,,,,,,,,,,,008,001,2024-06-03_11h57.10.031,ps,2023.2.3,30.001164047043453,2024-06-03 11h57.21.449406 -0400,
mini_blocks/2d_wm_mini_block_1.xlsx,"*Break*
Entering the 2D WORKING MEMORY block
Rotation is Counter/Clockwise
Press <4> to continue
               ",1,0,1,2D,None,120,False,True,27,obj1,80,320,output_pairs/2D_120_WM/2D_120_WM_27_1_obj_10_80deg.png,output_pairs/2D_120_WM/2D_120_WM_27_2_obj_10_320deg.png,169,comma,0,3,3,3,,,,,0,5,5,5,,,,,,,,,696.9296972999582,,,,,,,,,,,,,,,,,,,,,,,,,,,,,,,,,,,,,696.8540404999512,696.9296972999582,697.8307515999768,697.9306499999948,701.8582232999615,701.8582232999615,702.8639821999823,702.8306464999914,702.8306464999914,705.4214622,comma,1,2.587290199997369,None,705.4216654999764,705.453876399959,705.453876399959,707.424369699962,2.0,['period'],707.4245160999708,707.4535658999812,709.4249170999974,[0.827896700007841],[None],707.4535658999812,707.4535658999812,,,,,,,,,,,,,,,,,,,,,,,,,,,,,,,,,,,,,,,,,,,,,,,,,,,,,,,,,,,,,,,,,,,,,,,,,,,,,,,,,,,,008,001,2024-06-03_11h57.10.031,ps,2023.2.3,30.001164047043453,2024-06-03 11h57.21.449406 -0400,
mini_blocks/2d_wm_mini_block_1.xlsx,"*Break*
Entering the 2D WORKING MEMORY block
Rotation is Counter/Clockwise
Press <4> to continue
               ",1,0,1,2D,None,0,False,True,19,obj1,160,160,output_pairs/2D_0_WM/2D_0_WM_19_1_obj_12_160deg.png,output_pairs/2D_0_WM/2D_0_WM_19_2_obj_12_160deg.png,209,comma,0,3,3,3,,,,,0,6,6,6,,,,,,,,,709.4907899999525,,,,,,,,,,,,,,,,,,,,,,,,,,,,,,,,,,,,,709.4251051999745,709.4907899999525,710.4308436999563,710.4974989999901,714.4248663999606,714.4541023999918,715.4249182999483,715.4249182999483,715.4249182999483,716.8876761999563,comma,1,1.4561818999936804,None,716.8878852999769,716.9201199999661,716.9201199999661,718.890708699997,None,None,718.8907949999557,718.9201782999444,720.8976831999607,,,718.9201782999444,718.9201782999444,,,,,,,,,,,,,,,,,,,,,,,,,,,,,,,,,,,,,,,,,,,,,,,,,,,,,,,,,,,,,,,,,,,,,,,,,,,,,,,,,,,,008,001,2024-06-03_11h57.10.031,ps,2023.2.3,30.001164047043453,2024-06-03 11h57.21.449406 -0400,
mini_blocks/2d_wm_mini_block_1.xlsx,"*Break*
Entering the 2D WORKING MEMORY block
Rotation is Counter/Clockwise
Press <4> to continue
               ",1,0,1,2D,None,0,True,True,21,sm2,100,100,output_pairs/2D_0_M_WM/2D_0_M_WM_21_1_SM2_100deg.png,output_pairs/2D_0_M_WM/2D_0_M_WM_21_2_SM2_100deg.png,676,period,0,3,3,3,,,,,0,7,7,7,,,,,,,,,720.9630400999449,,,,,,,,,,,,,,,,,,,,,,,,,,,,,,,,,,,,,720.8978632999933,720.9630400999449,721.8872418999672,721.9871476999833,725.8868750999682,725.8868750999682,726.8915582999471,726.8915582999471,726.8915582999471,728.6878656999907,comma,0,1.7820595999946818,None,728.6880784999812,728.7201960999519,728.7201960999519,730.6908975999686,4.0,['rshift'],730.691050799971,730.7203692999901,732.6878648999846,[0.768588200036902],[None],730.7203692999901,730.7203692999901,732.7510765999905,,,,,,,,,,,,,,,,,,,,,,,,,,,,,,,,,,,,,,,,,,,,,,,,,,,,,,,,,,,,,,,,,,,,,,,,,,,,,,,,,,,008,001,2024-06-03_11h57.10.031,ps,2023.2.3,30.001164047043453,2024-06-03 11h57.21.449406 -0400,
mini_blocks/2d_wm_mini_block_1.xlsx,"*Break*
Entering the 2D WORKING MEMORY block
Rotation is Counter/Clockwise
Press <4> to continue
               ",1,0,1,2D,None,180,True,True,10,obj8,300,120,output_pairs/2D_180_M_WM/2D_180_M_WM_10_1_obj_8_300deg.png,output_pairs/2D_180_M_WM/2D_180_M_WM_10_2_obj_8_120deg.png,420,period,0,3,3,3,,,,,0,8,8,8,,,,,,,,,732.7510765999905,,,,,,,,,,,,,,,,,,,,,,,,,,,,,,,,,,,,,732.688041299989,732.7510765999905,733.6873076999909,733.7582187999506,737.6916365999496,737.6916365999496,738.6916141999536,738.6916141999536,738.6916141999536,740.4546193999704,comma,0,1.7341411999659613,None,740.4548319999594,740.4869624999701,740.4869624999701,742.4604395999922,2.0,['period'],742.4606313999975,742.4916606999468,744.4585307999514,[1.3219043999561109],[None],,,,,,,,,,,,,,,,,,,,,,,,,,,,,,,,,,,,,,,,,,,,,,,,,,,,,,,,,,,,,,,,,,,,,,,,,,,,,,,,,,,,,,008,001,2024-06-03_11h57.10.031,ps,2023.2.3,30.001164047043453,2024-06-03 11h57.21.449406 -0400,
mini_blocks/2d_wm_mini_block_1.xlsx,"*Break*
Entering the 2D WORKING MEMORY block
Rotation is Counter/Clockwise
Press <4> to continue
               ",1,0,1,2D,None,180,False,True,32,obj1,80,260,output_pairs/2D_180_WM/2D_180_WM_32_1_obj_1_80deg.png,output_pairs/2D_180_WM/2D_180_WM_32_2_obj_1_260deg.png,721,comma,0,3,3,3,,,,,0,9,9,9,,,,,,,,,744.5231075999909,,,,,,,,,,,,,,,,,,,,,,,,,,,,,,,,,,,,,744.4587209999445,744.5231075999909,745.4644231999991,745.5308318999596,749.4583387999446,749.491685499961,750.4872588999569,750.4539968999452,750.4539968999452,752.0548298999784,comma,1,1.5790386000298895,None,752.0550308999955,752.0872835999471,752.0872835999471,754.0578606999479,2.0,['period'],754.0580371999531,754.0870281999814,756.0585222999798,[1.9062249000417069],[None],754.0870281999814,754.0870281999814,,,,,,,,,,,,,,,,,,,,,,,,,,,,,,,,,,,,,,,,,,,,,,,,,,,,,,,,,,,,,,,,,,,,,,,,,,,,,,,,,,,,008,001,2024-06-03_11h57.10.031,ps,2023.2.3,30.001164047043453,2024-06-03 11h57.21.449406 -0400,
mini_blocks/2d_wm_mini_block_1.xlsx,"*Break*
Entering the 2D WORKING MEMORY block
Rotation is Counter/Clockwise
Press <4> to continue
               ",1,0,1,2D,None,0,True,True,31,sm3,160,160,output_pairs/2D_0_M_WM/2D_0_M_WM_31_1_SM3_160deg.png,output_pairs/2D_0_M_WM/2D_0_M_WM_31_2_SM3_160deg.png,673,period,0,3,3,3,,,,,0,10,10,10,,,,,,,,,756.1189537999453,,,,,,,,,,,,,,,,,,,,,,,,,,,,,,,,,,,,,756.0587086000014,756.1189537999453,757.0916481999448,757.1207394999801,761.0871722999727,761.120451099996,762.0871860999614,762.0871860999614,762.0871860999614,763.7591312999721,comma,0,1.65068160003284,None,763.7593427999527,763.7918447999982,763.7918447999982,765.7893757999991,4.0,['rshift'],765.7896544999676,765.820413999958,767.7919075999525,[1.1617367999861017],[None],,,,,,,,,,,,,,,,,,,,,,,,,,,,,,,,,,,,,,,,,,,,,,,,,,,,,,,,,,,,,,,,,,,,,,,,,,,,,,,,,,,,,,008,001,2024-06-03_11h57.10.031,ps,2023.2.3,30.001164047043453,2024-06-03 11h57.21.449406 -0400,
mini_blocks/2d_wm_mini_block_1.xlsx,"*Break*
Entering the 2D WORKING MEMORY block
Rotation is Counter/Clockwise
Press <4> to continue
               ",1,0,1,2D,None,120,False,True,10,obj1,320,80,output_pairs/2D_120_WM/2D_120_WM_10_1_obj_1_320deg.png,output_pairs/2D_120_WM/2D_120_WM_10_2_obj_1_80deg.png,173,comma,0,3,3,3,,,,,0,11,11,11,,,,,,,,,767.8701794999652,,,,,,,,,,,,,,,,,,,,,,,,,,,,,,,,,,,,,767.7920970999985,767.8701794999652,768.7585864999564,768.8876665999996,772.7583782000002,772.7583782000002,773.7585432999767,773.7585432999767,773.7585432999767,775.4216031999676,comma,1,1.6589868000010028,None,775.421808199957,775.4537562999758,775.4537562999758,777.4244936999748,4.0,['rshift'],777.4246438999544,777.4536926999572,779.4216205999837,[0.7307540000183508],[None],777.4536926999572,777.4536926999572,779.4849372999743,,,,,,,,,,,,,,,,,,,,,,,,,,,,,,,,,,,,,,,,,,,,,,,,,,,,,,,,,,,,,,,,,,,,,,,,,,,,,,,,,,,008,001,2024-06-03_11h57.10.031,ps,2023.2.3,30.001164047043453,2024-06-03 11h57.21.449406 -0400,
mini_blocks/2d_wm_mini_block_1.xlsx,"*Break*
Entering the 2D WORKING MEMORY block
Rotation is Counter/Clockwise
Press <4> to continue
               ",1,0,1,2D,None,60,False,True,14,sm3,180,240,output_pairs/2D_60_WM/2D_60_WM_14_1_SM3_180deg.png,output_pairs/2D_60_WM/2D_60_WM_14_2_SM3_240deg.png,139,comma,0,3,3,3,,,,,0,12,12,12,,,,,,,,,779.4849372999743,,,,,,,,,,,,,,,,,,,,,,,,,,,,,,,,,,,,,779.4218099999707,779.4849372999743,780.4311444999767,780.4980482999817,784.4251735999715,784.4584285999881,785.4309988999739,785.4309988999739,785.4309988999739,789.1257927999832,comma,1,3.666335599962622,None,789.1259916999843,789.1584699999657,789.1584699999657,791.1554858999443,4.0,['rshift'],791.1556391999475,791.1870080999797,793.1540160999866,[0.4912770000519231],[None],,,,,,,,,,,,,,,,,,,,,,,,,,,,,,,,,,,,,,,,,,,,,,,,,,,,,,,,,,,,,,,,,,,,,,,,,,,,,,,,,,,,,,008,001,2024-06-03_11h57.10.031,ps,2023.2.3,30.001164047043453,2024-06-03 11h57.21.449406 -0400,
mini_blocks/2d_wm_mini_block_1.xlsx,"*Break*
Entering the 2D WORKING MEMORY block
Rotation is Counter/Clockwise
Press <4> to continue
               ",1,0,1,2D,None,0,False,True,6,obj1,240,240,output_pairs/2D_0_WM/2D_0_WM_06_1_obj_1_240deg.png,output_pairs/2D_0_WM/2D_0_WM_06_2_obj_1_240deg.png,222,comma,0,3,3,3,,,,,0,13,13,13,,,,,,,,,793.2319508999935,,,,,,,,,,,,,,,,,,,,,,,,,,,,,,,,,,,,,793.1543480999535,793.2319508999935,794.1252969999914,794.2541348999948,798.1251089999569,798.1251089999569,799.1310381999938,799.1310381999938,799.1310381999938,800.1550652000005,comma,1,0.9982831000234,None,800.1553207999677,800.1872033999534,800.1872033999534,802.1578358999686,4.0,['rshift'],802.1580119999708,802.1873829999822,804.1549205999472,[0.4777786000049673],[None],802.1873829999822,802.1873829999822,804.2154484999483,,,,,,,,,,,,,,,,,,,,,,,,,,,,,,,,,,,,,,,,,,,,,,,,,,,,,,,,,,,,,,,,,,,,,,,,,,,,,,,,,,,008,001,2024-06-03_11h57.10.031,ps,2023.2.3,30.001164047043453,2024-06-03 11h57.21.449406 -0400,
mini_blocks/2d_wm_mini_block_1.xlsx,"*Break*
Entering the 2D WORKING MEMORY block
Rotation is Counter/Clockwise
Press <4> to continue
               ",1,0,1,2D,None,180,True,True,25,obj3,80,260,output_pairs/2D_180_M_WM/2D_180_M_WM_25_1_obj_3_80deg.png,output_pairs/2D_180_M_WM/2D_180_M_WM_25_2_obj_3_260deg.png,441,period,0,3,3,3,,,,,0,14,14,14,,,,,,,,,804.2154484999483,,,,,,,,,,,,,,,,,,,,,,,,,,,,,,,,,,,,,804.1551184999989,804.2154484999483,805.1646307999617,805.2313994999859,809.1585967999999,809.1919462999795,810.1587138999603,810.1587138999603,810.1587138999603,816.2260412999894,comma,0,6.050836999958847,None,816.2262358999578,816.2586461999454,816.2586461999454,818.2558770999894,4.0,['rshift'],818.2560327999527,818.2873751999578,820.2542993999668,[0.4632241000072099],[None],,,,,,,,,,,,,,,,,,,,,,,,,,,,,,,,,,,,,,,,,,,,,,,,,,,,,,,,,,,,,,,,,,,,,,,,,,,,,,,,,,,,,,008,001,2024-06-03_11h57.10.031,ps,2023.2.3,30.001164047043453,2024-06-03 11h57.21.449406 -0400,
mini_blocks/2d_wm_mini_block_1.xlsx,"*Break*
Entering the 2D WORKING MEMORY block
Rotation is Counter/Clockwise
Press <4> to continue
               ",1,0,1,2D,None,120,True,True,18,obj9,160,40,output_pairs/2D_120_M_WM/2D_120_M_WM_18_1_obj_9_160deg.png,output_pairs/2D_120_M_WM/2D_120_M_WM_18_2_obj_9_40deg.png,251,period,0,3,3,3,,,,,0,15,15,15,,,,,,,,,820.329531299998,,,,,,,,,,,,,,,,,,,,,,,,,,,,,,,,,,,,,820.2546136999736,820.329531299998,821.2253592999768,821.3588161999942,825.2212526999647,825.2212526999647,826.2211270999978,826.2544935999904,826.2544935999904,828.2213081999798,comma,0,1.954263100051321,None,828.2215084999916,828.2538856999599,828.2538856999599,830.2277151999879,4.0,['rshift'],830.2279100999585,830.2586139999912,832.2255920999451,[0.7465220000012778],[None],,,,,,,,,,,,,,,,,,,,,,,,,,,,,,,,,,,,,,,,,,,,,,,,,,,,,,,,,,,,,,,,,,,,,,,,,,,,,,,,,,,,,,008,001,2024-06-03_11h57.10.031,ps,2023.2.3,30.001164047043453,2024-06-03 11h57.21.449406 -0400,
mini_blocks/2d_wm_mini_block_1.xlsx,"*Break*
Entering the 2D WORKING MEMORY block
Rotation is Counter/Clockwise
Press <4> to continue
               ",1,0,1,,,,,,,,,,,,,,0,3,3,3,,,,,,,,,,,,,,,,,,,,,,,,,,,,,,,,,,,,,,,,,,,,,,,,,,,,,,,,,,,,,,,,,,,,,,,,,,,,,,,,,,832.225658099982,832.2588222999475,832.2588222999475,840.2559589999728,4.0,"['period', 'rshift']","[0.9506465999875218, 1.0546394999837503]","[None, None]",840.256102299958,878.755464899994,rshift,,,,,,,,,,,,,,,840.2873652999988,840.2873652999988,38.46610330004478,None,,,,,,,,,,,,,,,,,,,,,,,,,,,,,,,,,,,,,,,,,,,,,,,,,,,,,,008,001,2024-06-03_11h57.10.031,ps,2023.2.3,30.001164047043453,2024-06-03 11h57.21.449406 -0400,
mini_blocks/3dp_single_mini_block_3.xlsx,"*Break*
Entering the 3D SIMULTANEOUS block
Rotation is Counter/Clockwise
Press <4> to continue",0,1,0,3D,p,60,True,False,None,sm5,300,0,output_pairs/3Dp_60m/3Dp_60m_sm_5_300_to_0deg.png,None,852,period,0,4,4,4,0,0,0,0,,,,,,,,,,,,,883.8660149999778,,,,,,,,,,,,,,,,,,,,,,,,,,,,,,878.7557859999943,878.791763599962,878.791763599962,883.7923401999869,rshift,4.977532600052655,None,,,,,,,,,,,,,,,893.0227341999998,893.0584370999713,893.0584370999713,895.0564187999698,1.0,['comma'],895.0567153999582,895.0875229999656,897.0258846999495,[1.2221948999795131],[None],,,,,,,,,,,,,,,883.8183287999709,883.8660149999778,884.7981826999458,884.7981826999458,884.8915763999685,,,893.0224441999453,period,1,8.202917999995407,None,,,,,,,,,,,,,,,,,,,,,,,,,,,,,,,,,,,,,,,,,,,,,,,,,,,,,,,,,,,,008,001,2024-06-03_11h57.10.031,ps,2023.2.3,30.001164047043453,2024-06-03 11h57.21.449406 -0400,
mini_blocks/3dp_single_mini_block_3.xlsx,"*Break*
Entering the 3D SIMULTANEOUS block
Rotation is Counter/Clockwise
Press <4> to continue",0,1,0,3D,p,0,True,False,None,obj5,180,None,output_pairs/3Dp_0m/3Dp_0m_obj_5_180deg.png,None,1710,period,0,4,4,4,0,1,1,1,,,,,,,,,,,,,897.0719715000014,,,,,,,,,,,,,,,,,,,,,,,,,,,,,,,,,,,,,,,,,,,,,,,,,,,907.0214885000023,907.0543553999742,907.0543553999742,909.0274675999535,2.0,"['comma', 'period']",909.0277574999491,909.0546672999626,911.0319531999994,"[0.45901429996592924, 1.5719709999975748]","[None, None]",,,,,,,,,,,,,,,897.026063599973,897.0719715000014,898.0316004999913,898.0316004999913,898.0879601999768,907.0543553999742,907.0543553999742,907.0213249999797,None,0,,,,,,,,,,,,,,,,,,,,,,,,,,,,,,,,,,,,,,,,,,,,,,,,,,,,,,,,,,,,,,008,001,2024-06-03_11h57.10.031,ps,2023.2.3,30.001164047043453,2024-06-03 11h57.21.449406 -0400,
mini_blocks/3dp_single_mini_block_3.xlsx,"*Break*
Entering the 3D SIMULTANEOUS block
Rotation is Counter/Clockwise
Press <4> to continue",0,1,0,3D,p,120,True,False,None,obj1,320,80,output_pairs/3Dp_120m/3Dp_120m_obj_13_320_to_80deg.png,None,2129,period,0,4,4,4,0,2,2,2,,,,,,,,,,,,,911.0812424999895,,,,,,,,,,,,,,,,,,,,,,,,,,,,,,,,,,,,,,,,,,,,,,,,,,,917.5926652999478,917.6252165999613,917.6252165999613,919.6231322999811,2.0,['period'],919.6232885999489,919.654304799973,921.6258676999714,[0.8075640000170097],[None],,,,,,,,,,,,,,,911.0323162999703,911.0812424999895,912.0212806999916,912.0212806999916,912.091764999961,,,917.5924624999752,comma,0,5.5401529999799095,None,,,,,,,,,,,,,,,,,,,,,,,,,,,,,,,,,,,,,,,,,,,,,,,,,,,,,,,,,,,,008,001,2024-06-03_11h57.10.031,ps,2023.2.3,30.001164047043453,2024-06-03 11h57.21.449406 -0400,
mini_blocks/3dp_single_mini_block_3.xlsx,"*Break*
Entering the 3D SIMULTANEOUS block
Rotation is Counter/Clockwise
Press <4> to continue",0,1,0,3D,p,120,False,False,None,obj7,160,280,output_pairs/3Dp_120/3Dp_120_obj_7_160_to_280deg.png,None,708,comma,0,4,4,4,0,3,3,3,,,,,,,,,,,,,921.6807355999481,,,,,,,,,,,,,,,,,,,,,,,,,,,,,,,,,,,,,,,,,,,,,,,,,,,929.6928719999851,929.725356699957,929.725356699957,931.7230607999954,None,None,931.7231550999568,931.754404999956,933.7258804999874,,,,,,,,,,,,,,,,,921.6260554999462,921.6807355999481,922.5925139999599,922.5925139999599,922.6921810999629,,,929.6926689999527,comma,1,7.072656999982428,None,,,,,,,,,,,,,,,,,,,,,,,,,,,,,,,,,,,,,,,,,,,,,,,,,,,,,,,,,,,,008,001,2024-06-03_11h57.10.031,ps,2023.2.3,30.001164047043453,2024-06-03 11h57.21.449406 -0400,
mini_blocks/3dp_single_mini_block_3.xlsx,"*Break*
Entering the 3D SIMULTANEOUS block
Rotation is Counter/Clockwise
Press <4> to continue",0,1,0,3D,p,120,False,False,None,obj2,280,40,output_pairs/3Dp_120/3Dp_120_obj_2_280_to_40deg.png,None,729,comma,0,4,4,4,0,4,4,4,,,,,,,,,,,,,933.7694933999446,,,,,,,,,,,,,,,,,,,,,,,,,,,,,,,,,,,,,,,,,,,,,,,,,,,939.7929495999706,939.8252793999854,939.8252793999854,941.800303499971,2.0,['period'],941.8005017999676,941.8211938999593,943.7883092999691,[0.6316912999609485],[None],,,943.8350254999823,,,,,,,,,,,,933.7260664999485,933.7694933999446,934.6986207999871,934.6986207999871,934.7881144999992,,,939.7927438999759,comma,1,5.079042700002901,None,,,,,,,,,,,,,,,,,,,,,,,,,,,,,,,,,,,,,,,,,,,,,,,,,,,,,,,,,,,,008,001,2024-06-03_11h57.10.031,ps,2023.2.3,30.001164047043453,2024-06-03 11h57.21.449406 -0400,
mini_blocks/3dp_single_mini_block_3.xlsx,"*Break*
Entering the 3D SIMULTANEOUS block
Rotation is Counter/Clockwise
Press <4> to continue",0,1,0,3D,p,180,False,False,None,obj1,40,220,output_pairs/3Dp_180/3Dp_180_obj_1_40_to_220deg.png,None,748,comma,0,4,4,4,0,5,5,5,,,,,,,,,,,,,943.8350254999823,,,,,,,,,,,,,,,,,,,,,,,,,,,,,,,,,,,,,,,,,,,,,,,,,,,952.6558622999582,952.6878616999602,952.6878616999602,954.6607700999593,2.0,['period'],954.6609208000009,954.6881918999716,956.6553306999849,[0.6416231999755837],[None],,,956.7068890999653,,,,,,,,,,,,943.7884805999929,943.8350254999823,944.7925986999762,944.7925986999762,944.8588509999681,,,952.6556508999784,comma,1,7.840334099950269,None,,,,,,,,,,,,,,,,,,,,,,,,,,,,,,,,,,,,,,,,,,,,,,,,,,,,,,,,,,,,008,001,2024-06-03_11h57.10.031,ps,2023.2.3,30.001164047043453,2024-06-03 11h57.21.449406 -0400,
mini_blocks/3dp_single_mini_block_3.xlsx,"*Break*
Entering the 3D SIMULTANEOUS block
Rotation is Counter/Clockwise
Press <4> to continue",0,1,0,3D,p,180,False,False,None,sm4,280,100,output_pairs/3Dp_180/3Dp_180_sm_4_280_to_100deg.png,None,761,comma,0,4,4,4,0,6,6,6,,,,,,,,,,,,,956.7068890999653,,,,,,,,,,,,,,,,,,,,,,,,,,,,,,,,,,,,,,,,,,,,,,,,,,,965.0891299999785,965.1212612999952,965.1212612999952,967.0921721999766,2.0,['period'],967.0923648999888,967.1216706999694,969.0889128999552,[1.1679607999976724],[None],967.1216706999694,967.1216706999694,969.1430532999802,,,,,,,,,,,,956.6555065999855,956.7068890999653,957.6548323999741,957.6548323999741,957.7215419999557,,,965.0889176999917,comma,1,7.427086999989115,None,,,,,,,,,,,,,,,,,,,,,,,,,,,,,,,,,,,,,,,,,,,,,,,,,,,,,,,,,,,,008,001,2024-06-03_11h57.10.031,ps,2023.2.3,30.001164047043453,2024-06-03 11h57.21.449406 -0400,
mini_blocks/3dp_single_mini_block_3.xlsx,"*Break*
Entering the 3D SIMULTANEOUS block
Rotation is Counter/Clockwise
Press <4> to continue",0,1,0,3D,p,60,True,False,None,obj1,140,200,output_pairs/3Dp_60m/3Dp_60m_obj_10_140_to_200deg.png,None,859,period,0,4,4,4,0,7,7,7,,,,,,,,,,,,,969.1430532999802,,,,,,,,,,,,,,,,,,,,,,,,,,,,,,,,,,,,,,,,,,,,,,,,,,,978.7557079999824,978.79222199996,978.79222199996,980.7609643999604,None,None,980.7610547999502,980.7925389999873,982.788333799981,,,,,,,,,,,,,,,,,969.0890934999916,969.1430532999802,970.088282199984,970.088282199984,970.1550738999504,,,978.7554995999672,comma,0,8.641599499969743,None,,,,,,,,,,,,,,,,,,,,,,,,,,,,,,,,,,,,,,,,,,,,,,,,,,,,,,,,,,,,008,001,2024-06-03_11h57.10.031,ps,2023.2.3,30.001164047043453,2024-06-03 11h57.21.449406 -0400,
mini_blocks/3dp_single_mini_block_3.xlsx,"*Break*
Entering the 3D SIMULTANEOUS block
Rotation is Counter/Clockwise
Press <4> to continue",0,1,0,3D,p,120,False,False,None,obj8,300,60,output_pairs/3Dp_120/3Dp_120_obj_8_300_to_60deg.png,None,707,comma,0,4,4,4,0,8,8,8,,,,,,,,,,,,,982.8340222999686,,,,,,,,,,,,,,,,,,,,,,,,,,,,,,,,,,,,,,,,,,,,,,,,,,,990.5653808999923,990.5978585999692,990.5978585999692,992.5901307999738,4.0,['rshift'],992.5903525999747,992.6214499999769,994.5928618999897,[0.8106995999696665],[None],,,,,,,,,,,,,,,982.788583699963,982.8340222999686,983.7549231000012,983.7549231000012,983.8550267999526,,,990.565176199947,comma,1,6.798014499945566,None,,,,,,,,,,,,,,,,,,,,,,,,,,,,,,,,,,,,,,,,,,,,,,,,,,,,,,,,,,,,008,001,2024-06-03_11h57.10.031,ps,2023.2.3,30.001164047043453,2024-06-03 11h57.21.449406 -0400,
mini_blocks/3dp_single_mini_block_3.xlsx,"*Break*
Entering the 3D SIMULTANEOUS block
Rotation is Counter/Clockwise
Press <4> to continue",0,1,0,3D,p,120,False,False,None,obj7,300,60,output_pairs/3Dp_120/3Dp_120_obj_7_300_to_60deg.png,None,715,comma,0,4,4,4,0,9,9,9,,,,,,,,,,,,,994.6458247999544,,,,,,,,,,,,,,,,,,,,,,,,,,,,,,,,,,,,,,,,,,,,,,,,,,,1001.9932898999541,1002.0256141999853,1002.0256141999853,1004.0234810999827,4.0,['rshift'],1004.0236444999464,1004.0546191999456,1006.021668899979,[0.7754135000286624],[None],,,,,,,,,,,,,,,994.5930366999819,994.6458247999544,995.5592341999873,995.5592341999873,995.6551232999773,,,1001.993083099951,comma,1,6.426603599975351,None,,,,,,,,,,,,,,,,,,,,,,,,,,,,,,,,,,,,,,,,,,,,,,,,,,,,,,,,,,,,008,001,2024-06-03_11h57.10.031,ps,2023.2.3,30.001164047043453,2024-06-03 11h57.21.449406 -0400,
mini_blocks/3dp_single_mini_block_3.xlsx,"*Break*
Entering the 3D SIMULTANEOUS block
Rotation is Counter/Clockwise
Press <4> to continue",0,1,0,3D,p,0,False,False,None,obj1,40,None,output_pairs/3Dp_0/3Dp_0_obj_13_40deg.png,None,2153,comma,0,4,4,4,0,10,10,10,,,,,,,,,,,,,1006.0647476000013,,,,,,,,,,,,,,,,,,,,,,,,,,,,,,,,,,,,,,,,,,,,,,,,,,,1009.1558517999947,1009.1881193000008,1009.1881193000008,1011.1611124999472,4.0,['rshift'],1011.1612602999667,1011.1928158999654,1013.1595168999629,[0.596963300020434],[None],,,,,,,,,,,,,,,1006.0219990999904,1006.0647476000013,1006.9929045999888,1006.9929045999888,1007.0924814999453,,,1009.1556387999444,comma,1,2.1288935999618843,None,,,,,,,,,,,,,,,,,,,,,,,,,,,,,,,,,,,,,,,,,,,,,,,,,,,,,,,,,,,,008,001,2024-06-03_11h57.10.031,ps,2023.2.3,30.001164047043453,2024-06-03 11h57.21.449406 -0400,
mini_blocks/3dp_single_mini_block_3.xlsx,"*Break*
Entering the 3D SIMULTANEOUS block
Rotation is Counter/Clockwise
Press <4> to continue",0,1,0,3D,p,120,False,False,None,sm5,200,320,output_pairs/3Dp_120/3Dp_120_sm_5_200_to_320deg.png,None,724,comma,0,4,4,4,0,11,11,11,,,,,,,,,,,,,1013.2065956000006,,,,,,,,,,,,,,,,,,,,,,,,,,,,,,,,,,,,,,,,,,,,,,,,,,,1021.1228373999475,1021.1590235999902,1021.1590235999902,1023.1277921999572,2.0,['period'],1023.1279361999477,1023.1552369999699,1025.1223687999882,[1.0826597000123002],[None],,,1025.1645236999611,,,,,,,,,,,,1013.159688899992,1013.2065956000006,1014.1653627999476,1014.1653627999476,1014.2311969999573,,,1021.1226138999918,period,0,6.932559700042475,None,,,,,,,,,,,,,,,,,,,,,,,,,,,,,,,,,,,,,,,,,,,,,,,,,,,,,,,,,,,,008,001,2024-06-03_11h57.10.031,ps,2023.2.3,30.001164047043453,2024-06-03 11h57.21.449406 -0400,
mini_blocks/3dp_single_mini_block_3.xlsx,"*Break*
Entering the 3D SIMULTANEOUS block
Rotation is Counter/Clockwise
Press <4> to continue",0,1,0,3D,p,120,True,False,None,obj1,220,340,output_pairs/3Dp_120m/3Dp_120m_obj_11_220_to_340deg.png,None,2121,period,0,4,4,4,0,12,12,12,,,,,,,,,,,,,1025.1645236999611,,,,,,,,,,,,,,,,,,,,,,,,,,,,,,,,,,,,,,,,,,,,,,,,,,,1033.222760499979,1033.2549149999977,1033.2549149999977,1035.2255780999549,1.0,['comma'],1035.2258701999672,1035.2549099999596,1037.2225418000016,[0.8898768000071868],[None],1035.2549099999596,1035.2549099999596,1037.2809090999654,,,,,,,,,,,,1025.1225769000011,1025.1645236999611,1026.1319941999973,1026.1319941999973,1026.1644546999596,,,1033.2225538999774,period,1,7.061381600040477,None,,,,,,,,,,,,,,,,,,,,,,,,,,,,,,,,,,,,,,,,,,,,,,,,,,,,,,,,,,,,008,001,2024-06-03_11h57.10.031,ps,2023.2.3,30.001164047043453,2024-06-03 11h57.21.449406 -0400,
mini_blocks/3dp_single_mini_block_3.xlsx,"*Break*
Entering the 3D SIMULTANEOUS block
Rotation is Counter/Clockwise
Press <4> to continue",0,1,0,3D,p,180,True,False,None,sm1,340,160,output_pairs/3Dp_180m/3Dp_180m_sm_1_340_to_160deg.png,None,2033,period,0,4,4,4,0,13,13,13,,,,,,,,,,,,,1037.2809090999654,,,,,,,,,,,,,,,,,,,,,,,,,,,,,,,,,,,,,,,,,,,,,,,,,,,1044.3226663999958,1044.354917299992,1044.354917299992,1046.3259193999693,2.0,['period'],1046.3260689000017,1046.354901499988,1048.3264266999904,[0.9177671000361443],[None],1046.354901499988,1046.354901499988,,,,,,,,,,,,,1037.2227192999562,1037.2809090999654,1038.2321042999974,1038.2321042999974,1038.2983118999982,,,1044.3224575999775,period,1,6.057756100024562,None,,,,,,,,,,,,,,,,,,,,,,,,,,,,,,,,,,,,,,,,,,,,,,,,,,,,,,,,,,,,008,001,2024-06-03_11h57.10.031,ps,2023.2.3,30.001164047043453,2024-06-03 11h57.21.449406 -0400,
mini_blocks/3dp_single_mini_block_3.xlsx,"*Break*
Entering the 3D SIMULTANEOUS block
Rotation is Counter/Clockwise
Press <4> to continue",0,1,0,3D,p,0,True,False,None,sm1,300,None,output_pairs/3Dp_0m/3Dp_0m_sm_1_300deg.png,None,1702,period,0,4,4,4,0,14,14,14,,,,,,,,,,,,,1048.3650892999722,,,,,,,,,,,,,,,,,,,,,,,,,,,,,,,,,,,,,,,,,,,,,,,,,,,1056.0561191999586,1056.0882258999627,1056.0882258999627,1058.061316599953,1.0,['comma'],1058.0614727999782,1058.092956199951,1060.093034099962,[0.8657047000015154],[None],,,,,,,,,,,,,,,1048.326610899996,1048.3650892999722,1049.3320300999912,1049.3320300999912,1049.3649501999607,,,1056.0559088999871,period,1,6.708792899968103,None,,,,,,,,,,,,,,,,,,,,,,,,,,,,,,,,,,,,,,,,,,,,,,,,,,,,,,,,,,,,008,001,2024-06-03_11h57.10.031,ps,2023.2.3,30.001164047043453,2024-06-03 11h57.21.449406 -0400,
mini_blocks/3dp_single_mini_block_3.xlsx,"*Break*
Entering the 3D SIMULTANEOUS block
Rotation is Counter/Clockwise
Press <4> to continue",0,1,0,3D,p,120,True,False,None,obj1,220,340,output_pairs/3Dp_120m/3Dp_120m_obj_11_220_to_340deg.png,None,2121,period,0,4,4,4,0,15,15,15,,,,,,,,,,,,,1060.1322477999493,,,,,,,,,,,,,,,,,,,,,,,,,,,,,,,,,,,,,,,,,,,,,,,,,,,1069.3561994999764,1069.3882347999606,1069.3882347999606,1071.3592487999704,1.0,['comma'],1071.3594021999743,1071.3885374999954,1073.366088199953,[1.125498500012327],[None],1071.3885374999954,1071.3885374999954,,,,,,,,,,,,,1060.093211599975,1060.1322477999493,1061.055188599974,1061.055188599974,1061.1553537999862,,,1069.35597959999,period,1,8.27440439997008,None,,,,,,,,,,,,,,,,,,,,,,,,,,,,,,,,,,,,,,,,,,,,,,,,,,,,,,,,,,,,008,001,2024-06-03_11h57.10.031,ps,2023.2.3,30.001164047043453,2024-06-03 11h57.21.449406 -0400,
mini_blocks/3dp_single_mini_block_3.xlsx,"*Break*
Entering the 3D SIMULTANEOUS block
Rotation is Counter/Clockwise
Press <4> to continue",0,1,0,,,,,,,,,,,,,,0,4,4,4,,,,,,,,,,,,,,,,,,,,,,,,,,,,,,,,,,,,,,,,,,,,,,,,,,,,,,,,,,,,,,,,,,,,,,,,,,,,,,,,,,1073.382585299958,1073.4065948999487,1073.4065948999487,1081.3906856999965,4.0,['rshift'],[0.8668453000136651],[None],1081.3908552999492,1081.3908821999794,None,,,,,,,,,,,,,,,,,,,,,,,,,,,,,,,,,,,,,,,,,,,,,,,,,,,,,,,,,,,,,,,,,,,,,,,,008,001,2024-06-03_11h57.10.031,ps,2023.2.3,30.001164047043453,2024-06-03 11h57.21.449406 -0400,
mini_blocks/3dp_single_mini_block_1.xlsx,"*Break*
Entering the 3D SIMULTANEOUS block
Rotation is Counter/Clockwise
Press <4> to continue",0,1,0,3D,p,120,False,False,None,obj7,160,280,output_pairs/3Dp_120/3Dp_120_obj_7_160_to_280deg.png,None,708,comma,0,5,5,5,0,0,0,0,,,,,,,,,,,,,1088.1391019999865,,,,,,,,,,,,,,,,,,,,,,,,,,,,,,1081.3910156999482,1081.421920599998,1081.421920599998,1088.066264199966,rshift,6.612040300038643,None,,,,,,,,,,,,,,,1096.5564028999652,1096.5884910000023,1096.5884910000023,1098.5616616999614,2.0,['period'],1098.5619137999602,1098.593102099956,1100.5888434999506,[0.7808145000017248],[None],,,,,,,,,,,,,,,1088.0859732999816,1088.1391019999865,1089.0886847999645,1089.0886847999645,1089.1553875999525,,,1096.5560824999702,comma,1,7.433608299994376,None,,,,,,,,,,,,,,,,,,,,,,,,,,,,,,,,,,,,,,,,,,,,,,,,,,,,,,,,,,,,008,001,2024-06-03_11h57.10.031,ps,2023.2.3,30.001164047043453,2024-06-03 11h57.21.449406 -0400,
mini_blocks/3dp_single_mini_block_1.xlsx,"*Break*
Entering the 3D SIMULTANEOUS block
Rotation is Counter/Clockwise
Press <4> to continue",0,1,0,3D,p,60,False,False,None,obj4,280,340,output_pairs/3Dp_60/3Dp_60_obj_4_280_to_340deg.png,None,1619,comma,0,5,5,5,0,1,1,1,,,,,,,,,,,,,1100.6266092999722,,,,,,,,,,,,,,,,,,,,,,,,,,,,,,,,,,,,,,,,,,,,,,,,,,,1107.2268226000015,1107.2593835999724,1107.2593835999724,1109.2571758999838,2.0,['period'],1109.2573321999516,1109.2884865999804,1111.2600570999784,[1.0232219999888912],[None],,,,,,,,,,,,,,,1100.5891303999815,1100.6266092999722,1101.5557291999576,1101.5557291999576,1101.6592484999564,,,1107.226577399997,comma,1,5.654067300027236,None,,,,,,,,,,,,,,,,,,,,,,,,,,,,,,,,,,,,,,,,,,,,,,,,,,,,,,,,,,,,008,001,2024-06-03_11h57.10.031,ps,2023.2.3,30.001164047043453,2024-06-03 11h57.21.449406 -0400,
mini_blocks/3dp_single_mini_block_1.xlsx,"*Break*
Entering the 3D SIMULTANEOUS block
Rotation is Counter/Clockwise
Press <4> to continue",0,1,0,3D,p,180,False,False,None,obj8,40,220,output_pairs/3Dp_180/3Dp_180_obj_8_40_to_220deg.png,None,767,comma,0,5,5,5,0,2,2,2,,,,,,,,,,,,,1111.3225591999944,,,,,,,,,,,,,,,,,,,,,,,,,,,,,,,,,,,,,,,,,,,,,,,,,,,1121.1603160999948,1121.1927743999986,1121.1927743999986,1123.1903626999701,2.0,['period'],1123.1905149999657,1123.2218418999691,1125.18876369996,[0.9682808999787085],[None],,,,,,,,,,,,,,,1111.2602496999898,1111.3225591999944,1112.2323723000009,1112.2323723000009,1112.33199039998,,,1121.1600955999456,comma,1,8.912945299991407,None,,,,,,,,,,,,,,,,,,,,,,,,,,,,,,,,,,,,,,,,,,,,,,,,,,,,,,,,,,,,008,001,2024-06-03_11h57.10.031,ps,2023.2.3,30.001164047043453,2024-06-03 11h57.21.449406 -0400,
mini_blocks/3dp_single_mini_block_1.xlsx,"*Break*
Entering the 3D SIMULTANEOUS block
Rotation is Counter/Clockwise
Press <4> to continue",0,1,0,3D,p,120,True,False,None,obj1,200,320,output_pairs/3Dp_120m/3Dp_120m_obj_10_200_to_320deg.png,None,2138,period,0,5,5,5,0,3,3,3,,,,,,,,,,,,,1125.2365308000008,,,,,,,,,,,,,,,,,,,,,,,,,,,,,,,,,,,,,,,,,,,,,,,,,,,1135.126735400001,1135.1595273999847,1135.1595273999847,1137.1302811999922,2.0,['period'],1137.130455299979,1137.1599352999474,1139.160288999963,[0.6424617000157014],[None],1137.1599352999474,1137.1599352999474,1139.2141358999652,,,,,,,,,,,,1125.1890673000016,1125.2365308000008,1126.1601127999602,1126.1601127999602,1126.2596723999595,1135.1595273999847,1135.1595273999847,1135.1265742999967,None,0,,,,,,,,,,,,,,,,,,,,,,,,,,,,,,,,,,,,,,,,,,,,,,,,,,,,,,,,,,,,,,008,001,2024-06-03_11h57.10.031,ps,2023.2.3,30.001164047043453,2024-06-03 11h57.21.449406 -0400,
mini_blocks/3dp_single_mini_block_1.xlsx,"*Break*
Entering the 3D SIMULTANEOUS block
Rotation is Counter/Clockwise
Press <4> to continue",0,1,0,3D,p,0,True,False,None,obj5,180,None,output_pairs/3Dp_0m/3Dp_0m_obj_5_180deg.png,None,1710,period,0,5,5,5,0,4,4,4,,,,,,,,,,,,,1139.2141358999652,,,,,,,,,,,,,,,,,,,,,,,,,,,,,,,,,,,,,,,,,,,,,,,,,,,1145.460572699958,1145.4891316999565,1145.4891316999565,1147.4595030999626,4.0,['rshift'],1147.4596755999955,1147.4885672999662,1149.4559369999915,[0.8325678999535739],[None],1147.4885672999662,1147.4885672999662,1149.4948434999678,,,,,,,,,,,,1139.1604495999636,1139.2141358999652,1140.188955599966,1140.188955599966,1140.222347599978,,,1145.4602956999443,comma,0,5.252974700008053,None,,,,,,,,,,,,,,,,,,,,,,,,,,,,,,,,,,,,,,,,,,,,,,,,,,,,,,,,,,,,008,001,2024-06-03_11h57.10.031,ps,2023.2.3,30.001164047043453,2024-06-03 11h57.21.449406 -0400,
mini_blocks/3dp_single_mini_block_1.xlsx,"*Break*
Entering the 3D SIMULTANEOUS block
Rotation is Counter/Clockwise
Press <4> to continue",0,1,0,3D,p,0,True,False,None,sm1,300,None,output_pairs/3Dp_0m/3Dp_0m_sm_1_300deg.png,None,1702,period,0,5,5,5,0,5,5,5,,,,,,,,,,,,,1149.4948434999678,,,,,,,,,,,,,,,,,,,,,,,,,,,,,,,,,,,,,,,,,,,,,,,,,,,1159.4268425999908,1159.4558805999695,1159.4558805999695,1161.425878399983,1.0,['comma'],1161.4260290999664,1161.488541699946,1163.4605459999875,[0.39289899996947497],[None],1161.4554433999583,1161.4554433999583,1163.499596599955,,,,,,,,,,,,1149.4561160999583,1149.4948434999678,1150.4601392999757,1150.4601392999757,1150.5321408999735,1159.4558805999695,1159.4558805999695,1159.4266835999442,None,0,,,,,,,,,,,,,,,,,,,,,,,,,,,,,,,,,,,,,,,,,,,,,,,,,,,,,,,,,,,,,,008,001,2024-06-03_11h57.10.031,ps,2023.2.3,30.001164047043453,2024-06-03 11h57.21.449406 -0400,
mini_blocks/3dp_single_mini_block_1.xlsx,"*Break*
Entering the 3D SIMULTANEOUS block
Rotation is Counter/Clockwise
Press <4> to continue",0,1,0,3D,p,180,False,False,None,sm5,240,60,output_pairs/3Dp_180/3Dp_180_sm_5_240_to_60deg.png,None,766,comma,0,5,5,5,0,6,6,6,,,,,,,,,,,,,1163.499596599955,,,,,,,,,,,,,,,,,,,,,,,,,,,,,,,,,,,,,,,,,,,,,,,,,,,1168.1604671999812,1168.1930023999885,1168.1930023999885,1170.1637190999463,None,None,1170.1637966999551,1170.1933857999975,1172.1603597999783,,,1170.1933857999975,1170.1933857999975,1172.21395569999,,,,,,,,,,,,1163.460718999966,1163.499596599955,1164.466089499998,1164.466089499998,1164.4985279999673,,,1168.1602762999828,comma,1,3.679161700012628,None,,,,,,,,,,,,,,,,,,,,,,,,,,,,,,,,,,,,,,,,,,,,,,,,,,,,,,,,,,,,008,001,2024-06-03_11h57.10.031,ps,2023.2.3,30.001164047043453,2024-06-03 11h57.21.449406 -0400,
mini_blocks/3dp_single_mini_block_1.xlsx,"*Break*
Entering the 3D SIMULTANEOUS block
Rotation is Counter/Clockwise
Press <4> to continue",0,1,0,3D,p,0,True,False,None,obj1,280,None,output_pairs/3Dp_0m/3Dp_0m_obj_12_280deg.png,None,1716,period,0,5,5,5,0,7,7,7,,,,,,,,,,,,,1172.21395569999,,,,,,,,,,,,,,,,,,,,,,,,,,,,,,,,,,,,,,,,,,,,,,,,,,,1179.3903810999473,1179.4264505999745,1179.4264505999745,1181.4240270999726,4.0,['rshift'],1181.4241987999994,1181.455504499958,1183.3937747999444,[1.5031204000115395],[None],,,,,,,,,,,,,,,1172.1605199999758,1172.21395569999,1173.1557362999883,1173.1557362999883,1173.2223908999586,,,1179.3900455999537,comma,0,6.213548499974422,None,,,,,,,,,,,,,,,,,,,,,,,,,,,,,,,,,,,,,,,,,,,,,,,,,,,,,,,,,,,,008,001,2024-06-03_11h57.10.031,ps,2023.2.3,30.001164047043453,2024-06-03 11h57.21.449406 -0400,
mini_blocks/3dp_single_mini_block_1.xlsx,"*Break*
Entering the 3D SIMULTANEOUS block
Rotation is Counter/Clockwise
Press <4> to continue",0,1,0,3D,p,120,True,False,None,obj2,80,200,output_pairs/3Dp_120m/3Dp_120m_obj_2_80_to_200deg.png,None,2123,period,0,5,5,5,0,8,8,8,,,,,,,,,,,,,1183.432916199963,,,,,,,,,,,,,,,,,,,,,,,,,,,,,,,,,,,,,,,,,,,,,,,,,,,1191.9607041999698,1191.993106299953,1191.993106299953,1193.9909102999954,2.0,['period'],1193.9910762999789,1194.0221401999588,1195.9892822999973,[1.385491400025785],[None],,,,,,,,,,,,,,,1183.3939728999976,1183.432916199963,1184.3936335999751,1184.3936335999751,1184.4598396999645,,,1191.960497299966,comma,0,7.552764199965168,None,,,,,,,,,,,,,,,,,,,,,,,,,,,,,,,,,,,,,,,,,,,,,,,,,,,,,,,,,,,,008,001,2024-06-03_11h57.10.031,ps,2023.2.3,30.001164047043453,2024-06-03 11h57.21.449406 -0400,
mini_blocks/3dp_single_mini_block_1.xlsx,"*Break*
Entering the 3D SIMULTANEOUS block
Rotation is Counter/Clockwise
Press <4> to continue",0,1,0,3D,p,180,False,False,None,obj1,40,220,output_pairs/3Dp_180/3Dp_180_obj_1_40_to_220deg.png,None,748,comma,0,5,5,5,0,9,9,9,,,,,,,,,,,,,1196.030281299958,,,,,,,,,,,,,,,,,,,,,,,,,,,,,,,,,,,,,,,,,,,,,,,,,,,1202.660707199946,1202.6931651999475,1202.6931651999475,1204.6905711999862,4.0,['rshift'],1204.6907240999863,1204.7221514999983,1206.6889856999624,[1.1971383999916725],[None],,,,,,,,,,,,,,,1195.989546399971,1196.030281299958,1196.9661786999786,1196.9661786999786,1197.022496999998,,,1202.6605146999937,comma,1,5.684034999983851,None,,,,,,,,,,,,,,,,,,,,,,,,,,,,,,,,,,,,,,,,,,,,,,,,,,,,,,,,,,,,008,001,2024-06-03_11h57.10.031,ps,2023.2.3,30.001164047043453,2024-06-03 11h57.21.449406 -0400,
mini_blocks/3dp_single_mini_block_1.xlsx,"*Break*
Entering the 3D SIMULTANEOUS block
Rotation is Counter/Clockwise
Press <4> to continue",0,1,0,3D,p,60,True,False,None,obj1,140,200,output_pairs/3Dp_60m/3Dp_60m_obj_10_140_to_200deg.png,None,859,period,0,5,5,5,0,10,10,10,,,,,,,,,,,,,1206.7278798999614,,,,,,,,,,,,,,,,,,,,,,,,,,,,,,,,,,,,,,,,,,,,,,,,,,,1214.9900867999531,1215.0223279999918,1215.0223279999918,1216.9930680999532,None,None,1216.9931687999633,1217.0270319999545,1219.022742299945,,,1217.0270319999545,1217.0270319999545,,,,,,,,,,,,,1206.6892102999846,1206.7278798999614,1207.660464799963,1207.660464799963,1207.7599655999802,,,1214.9898734999588,comma,0,7.301419299968984,None,,,,,,,,,,,,,,,,,,,,,,,,,,,,,,,,,,,,,,,,,,,,,,,,,,,,,,,,,,,,008,001,2024-06-03_11h57.10.031,ps,2023.2.3,30.001164047043453,2024-06-03 11h57.21.449406 -0400,
mini_blocks/3dp_single_mini_block_1.xlsx,"*Break*
Entering the 3D SIMULTANEOUS block
Rotation is Counter/Clockwise
Press <4> to continue",0,1,0,3D,p,0,False,False,None,obj4,80,None,output_pairs/3Dp_0/3Dp_0_obj_4_80deg.png,None,2168,comma,0,5,5,5,0,11,11,11,,,,,,,,,,,,,1219.0729480999871,,,,,,,,,,,,,,,,,,,,,,,,,,,,,,,,,,,,,,,,,,,,,,,,,,,1221.856919199985,1221.889064899995,1221.889064899995,1223.8596769999713,4.0,['rshift'],1223.8598202999565,1223.8936850999598,1225.8895214999793,[0.4645192999741994],[None],1223.8936850999598,1223.8936850999598,,,,,,,,,,,,,1219.0230000999873,1219.0729480999871,1219.989274499996,1219.989274499996,1220.0893346999655,,,1221.8566548999515,comma,1,1.8355931999976747,None,,,,,,,,,,,,,,,,,,,,,,,,,,,,,,,,,,,,,,,,,,,,,,,,,,,,,,,,,,,,008,001,2024-06-03_11h57.10.031,ps,2023.2.3,30.001164047043453,2024-06-03 11h57.21.449406 -0400,
mini_blocks/3dp_single_mini_block_1.xlsx,"*Break*
Entering the 3D SIMULTANEOUS block
Rotation is Counter/Clockwise
Press <4> to continue",0,1,0,3D,p,60,True,False,None,obj1,140,200,output_pairs/3Dp_60m/3Dp_60m_obj_10_140_to_200deg.png,None,859,period,0,5,5,5,0,12,12,12,,,,,,,,,,,,,1225.9294407999841,,,,,,,,,,,,,,,,,,,,,,,,,,,,,,,,,,,,,,,,,,,,,,,,,,,1233.3566191999707,1233.3889783999766,1233.3889783999766,1235.3597531999694,4.0,['rshift'],1235.3599025000003,1235.3894799999543,1237.3664216999896,[0.7959894000086933],[None],1235.3894799999543,1235.3894799999543,,,,,,,,,,,,,1225.889778199955,1225.9294407999841,1226.8560290999594,1226.8560290999594,1226.9560056999908,,,1233.3564168000012,comma,0,6.498425900004804,None,,,,,,,,,,,,,,,,,,,,,,,,,,,,,,,,,,,,,,,,,,,,,,,,,,,,,,,,,,,,008,001,2024-06-03_11h57.10.031,ps,2023.2.3,30.001164047043453,2024-06-03 11h57.21.449406 -0400,
mini_blocks/3dp_single_mini_block_1.xlsx,"*Break*
Entering the 3D SIMULTANEOUS block
Rotation is Counter/Clockwise
Press <4> to continue",0,1,0,3D,p,0,False,False,None,obj1,280,None,output_pairs/3Dp_0/3Dp_0_obj_14_280deg.png,None,2145,comma,0,5,5,5,0,13,13,13,,,,,,,,,,,,,1237.413991999987,,,,,,,,,,,,,,,,,,,,,,,,,,,,,,,,,,,,,,,,,,,,,,,,,,,1240.2905406999635,1240.3222893999773,1240.3222893999773,1242.295517099963,4.0,['rshift'],1242.2956634999719,1242.3270276999683,1244.2937516999664,[0.37534669996239245],[None],,,,,,,,,,,,,,,1237.3666533999494,1237.413991999987,1238.3559911999619,1238.3559911999619,1238.422617699951,,,1240.2903260999592,comma,1,1.9328363999957219,None,,,,,,,,,,,,,,,,,,,,,,,,,,,,,,,,,,,,,,,,,,,,,,,,,,,,,,,,,,,,008,001,2024-06-03_11h57.10.031,ps,2023.2.3,30.001164047043453,2024-06-03 11h57.21.449406 -0400,
mini_blocks/3dp_single_mini_block_1.xlsx,"*Break*
Entering the 3D SIMULTANEOUS block
Rotation is Counter/Clockwise
Press <4> to continue",0,1,0,3D,p,60,True,False,None,obj1,200,260,output_pairs/3Dp_60m/3Dp_60m_obj_15_200_to_260deg.png,None,846,period,0,5,5,5,0,14,14,14,,,,,,,,,,,,,1244.3330977999722,,,,,,,,,,,,,,,,,,,,,,,,,,,,,,,,,,,,,,,,,,,,,,,,,,,1249.5275114999968,1249.5599211999797,1249.5599211999797,1251.5576798999682,2.0,['period'],1251.557850399986,1251.589162499993,1253.5606155999703,[0.9617412999505177],[None],,,,,,,,,,,,,,,1244.2939378999872,1244.3330977999722,1245.293709599995,1245.293709599995,1245.3561446999665,,,1249.527275200002,comma,0,4.196461700019427,None,,,,,,,,,,,,,,,,,,,,,,,,,,,,,,,,,,,,,,,,,,,,,,,,,,,,,,,,,,,,008,001,2024-06-03_11h57.10.031,ps,2023.2.3,30.001164047043453,2024-06-03 11h57.21.449406 -0400,
mini_blocks/3dp_single_mini_block_1.xlsx,"*Break*
Entering the 3D SIMULTANEOUS block
Rotation is Counter/Clockwise
Press <4> to continue",0,1,0,3D,p,0,True,False,None,obj4,80,None,output_pairs/3Dp_0m/3Dp_0m_obj_4_80deg.png,None,1727,period,0,5,5,5,0,15,15,15,,,,,,,,,,,,,1253.6043698999565,,,,,,,,,,,,,,,,,,,,,,,,,,,,,,,,,,,,,,,,,,,,,,,,,,,1262.523788099992,1262.5557991999667,1262.5557991999667,1264.5267348999623,2.0,['period'],1264.5268957999651,1264.5559750999673,1266.5232972999802,[0.6850689999992028],[None],1264.5559750999673,1264.5559750999673,1266.5562355999718,,,,,,,,,,,,1253.5608708999935,1253.6043698999565,1254.5272947999765,1254.5272947999765,1254.6267562999856,,,1262.5235739999916,period,1,7.979032300005201,None,,,,,,,,,,,,,,,,,,,,,,,,,,,,,,,,,,,,,,,,,,,,,,,,,,,,,,,,,,,,008,001,2024-06-03_11h57.10.031,ps,2023.2.3,30.001164047043453,2024-06-03 11h57.21.449406 -0400,
mini_blocks/3dp_single_mini_block_1.xlsx,"*Break*
Entering the 3D SIMULTANEOUS block
Rotation is Counter/Clockwise
Press <4> to continue",0,1,0,,,,,,,,,,,,,,0,5,5,5,,,,,,,,,,,,,,,,,,,,,,,,,,,,,,,,,,,,,,,,,,,,,,,,,,,,,,,,,,,,,,,,,,,,,,,,,,,,,,,,,,1266.5331173999584,1266.5562355999718,1266.5562355999718,1274.526630599983,4.0,['rshift'],[1.3972783000208437],[None],1274.526777399995,1274.5267994999886,None,,,,,,,,,,,,,1274.555909799994,1274.555909799994,,,,,,,,,,,,,,,,,,,,,,,,,,,,,,,,,,,,,,,,,,,,,,,,,,,,,,,,,,008,001,2024-06-03_11h57.10.031,ps,2023.2.3,30.001164047043453,2024-06-03 11h57.21.449406 -0400,
mini_blocks/2d_wm_mini_block_0.xlsx,"*Break*
Entering the 2D WORKING MEMORY block
Rotation is Counter/Clockwise
Press <4> to continue
               ",1,0,0,2D,None,0,True,True,22,obj6,40,40,output_pairs/2D_0_M_WM/2D_0_M_WM_22_1_obj_6_40deg.png,output_pairs/2D_0_M_WM/2D_0_M_WM_22_2_obj_6_40deg.png,692,period,0,6,6,6,,,,,0,0,0,0,,,,,,,,,1275.9849244999932,,,,,,,,,,,,,,,,,,,,,,,,,,,,,,1274.5269290999859,1274.555909799994,1274.555909799994,1275.9233954999945,rshift,1.3658590000122786,None,1275.9358757999726,1275.9849244999932,1276.9272628999897,1276.9940108999726,1280.9229170999606,1280.960537099978,1281.9273345999536,1281.9273345999536,1281.9273345999536,1288.3235845999443,comma,0,6.377689899993129,None,1288.323890999949,1288.3558466999675,1288.3558466999675,1290.329005699954,2.0,['period'],1290.3292451999732,1290.360546699958,1292.3334871999687,[0.9026059999596328],[None],,,,,,,,,,,,,,,,,,,,,,,,,,,,,,,,,,,,,,,,,,,,,,,,,,,,,,,,,,,,,,,,,,,,,,,,,,,,,,,,,,,,,,008,001,2024-06-03_11h57.10.031,ps,2023.2.3,30.001164047043453,2024-06-03 11h57.21.449406 -0400,
mini_blocks/2d_wm_mini_block_0.xlsx,"*Break*
Entering the 2D WORKING MEMORY block
Rotation is Counter/Clockwise
Press <4> to continue
               ",1,0,0,2D,None,60,True,True,18,obj1,20,320,output_pairs/2D_60_M_WM/2D_60_M_WM_18_1_obj_15_20deg.png,output_pairs/2D_60_M_WM/2D_60_M_WM_18_2_obj_15_320deg.png,627,period,0,6,6,6,,,,,0,1,1,1,,,,,,,,,1292.3934507999802,,,,,,,,,,,,,,,,,,,,,,,,,,,,,,,,,,,,,1292.3336750999442,1292.3934507999802,1293.3273105999688,1293.4273409999441,1297.3558690999635,1297.3558690999635,1298.3559664999484,1298.3559664999484,1298.3559664999484,1300.7947128999513,comma,0,2.4215999000007287,None,1300.7949085999862,1300.8275719999801,1300.8275719999801,1302.8243790999986,2.0,['period'],1302.8245361999725,1302.8559698999743,1304.8275542999618,[0.7820068000000902],[None],,,,,,,,,,,,,,,,,,,,,,,,,,,,,,,,,,,,,,,,,,,,,,,,,,,,,,,,,,,,,,,,,,,,,,,,,,,,,,,,,,,,,,008,001,2024-06-03_11h57.10.031,ps,2023.2.3,30.001164047043453,2024-06-03 11h57.21.449406 -0400,
mini_blocks/2d_wm_mini_block_0.xlsx,"*Break*
Entering the 2D WORKING MEMORY block
Rotation is Counter/Clockwise
Press <4> to continue
               ",1,0,0,2D,None,60,False,True,7,obj3,60,120,output_pairs/2D_60_WM/2D_60_WM_07_1_obj_3_60deg.png,output_pairs/2D_60_WM/2D_60_WM_07_2_obj_3_120deg.png,152,comma,0,6,6,6,,,,,0,2,2,2,,,,,,,,,1304.9117673999863,,,,,,,,,,,,,,,,,,,,,,,,,,,,,,,,,,,,,1304.8277296999586,1304.9117673999863,1305.8001265999628,1305.9331740999478,1309.794006399985,1309.8273016999592,1310.8001151999924,1310.8001151999924,1310.8001151999924,1312.0571458999766,comma,1,1.224681900057476,None,1312.0573517999728,1312.0897002999554,1312.0897002999554,1314.0602105999715,4.0,['rshift'],1314.060367099999,1314.094021399971,1316.09004619997,[0.8480807000305504],[None],1314.094021399971,1314.094021399971,,,,,,,,,,,,,,,,,,,,,,,,,,,,,,,,,,,,,,,,,,,,,,,,,,,,,,,,,,,,,,,,,,,,,,,,,,,,,,,,,,,,008,001,2024-06-03_11h57.10.031,ps,2023.2.3,30.001164047043453,2024-06-03 11h57.21.449406 -0400,
mini_blocks/2d_wm_mini_block_0.xlsx,"*Break*
Entering the 2D WORKING MEMORY block
Rotation is Counter/Clockwise
Press <4> to continue
               ",1,0,0,2D,None,180,True,True,29,obj1,160,340,output_pairs/2D_180_M_WM/2D_180_M_WM_29_1_obj_1_160deg.png,output_pairs/2D_180_M_WM/2D_180_M_WM_29_2_obj_1_340deg.png,422,period,0,6,6,6,,,,,0,3,3,3,,,,,,,,,1316.1628075999906,,,,,,,,,,,,,,,,,,,,,,,,,,,,,,,,,,,,,1316.0903855999932,1316.1628075999906,1317.0668611999718,1317.1563198999502,1321.0891594999703,1321.0891594999703,1322.0894436999806,1322.0894436999806,1322.0894436999806,1324.1946825999767,comma,0,2.0963764000334777,None,1324.1948762999964,1324.2273923999746,1324.2273923999746,1326.2244507999858,None,None,1326.2245593999978,1326.2558711999445,1328.2228621999966,,,,,,,,,,,,,,,,,,,,,,,,,,,,,,,,,,,,,,,,,,,,,,,,,,,,,,,,,,,,,,,,,,,,,,,,,,,,,,,,,,,,,,,,008,001,2024-06-03_11h57.10.031,ps,2023.2.3,30.001164047043453,2024-06-03 11h57.21.449406 -0400,
mini_blocks/2d_wm_mini_block_0.xlsx,"*Break*
Entering the 2D WORKING MEMORY block
Rotation is Counter/Clockwise
Press <4> to continue
               ",1,0,0,2D,None,120,False,True,22,obj1,40,160,output_pairs/2D_120_WM/2D_120_WM_22_1_obj_14_40deg.png,output_pairs/2D_120_WM/2D_120_WM_22_2_obj_14_160deg.png,168,comma,0,6,6,6,,,,,0,4,4,4,,,,,,,,,1328.274740599969,,,,,,,,,,,,,,,,,,,,,,,,,,,,,,,,,,,,,1328.2230946999625,1328.274740599969,1329.1941462999675,1329.300093799946,1333.1939990999526,1333.1939990999526,1334.1999801999773,1334.1999801999773,1334.1999801999773,1335.556557199976,comma,1,1.3294160999939777,None,1335.5567791999783,1335.5891961999587,1335.5891961999587,1337.5625345999724,4.0,['rshift'],1337.56269349996,1337.5896857999614,1339.5567110999837,[1.132413599989377],[None],,,1339.6098711999948,,,,,,,,,,,,,,,,,,,,,,,,,,,,,,,,,,,,,,,,,,,,,,,,,,,,,,,,,,,,,,,,,,,,,,,,,,,,,,,,,,,008,001,2024-06-03_11h57.10.031,ps,2023.2.3,30.001164047043453,2024-06-03 11h57.21.449406 -0400,
mini_blocks/2d_wm_mini_block_0.xlsx,"*Break*
Entering the 2D WORKING MEMORY block
Rotation is Counter/Clockwise
Press <4> to continue
