condition_file,message_to_show,repN_wm,repN_single,repN_break,dimension,rot_type,angle,mirror,wm,pair_id,obj_id,orientation1,orientation2,image_path_1,image_path_2,marker_id,correctAns,block_loop_main.thisRepN,block_loop_main.thisTrialN,block_loop_main.thisN,block_loop_main.thisIndex,simu_trials_loop.thisRepN,simu_trials_loop.thisTrialN,simu_trials_loop.thisN,simu_trials_loop.thisIndex,wm_trials_loop.thisRepN,wm_trials_loop.thisTrialN,wm_trials_loop.thisN,wm_trials_loop.thisIndex,block_loop_3dd.thisRepN,block_loop_3dd.thisTrialN,block_loop_3dd.thisN,block_loop_3dd.thisIndex,first_3Dd_wm.thisRepN,first_3Dd_wm.thisTrialN,first_3Dd_wm.thisN,first_3Dd_wm.thisIndex,thisRow.t,notes,start.started,text_start.started,key_resp_start.started,start.stopped,key_resp_start.keys,key_resp_start.rt,key_resp_start.duration,instructions.started,key_resp_12.started,image_8.started,instructions.stopped,key_resp_12.keys,key_resp_12.rt,key_resp_12.duration,instructions_2.started,image_9.started,key_resp_20.started,instructions_2.stopped,key_resp_20.keys,key_resp_20.rt,key_resp_20.duration,instructions_3.started,image_10.started,key_resp_21.started,instructions_3.stopped,key_resp_21.keys,key_resp_21.rt,key_resp_21.duration,before_block_instr.started,text_13.started,key_resp_7.started,before_block_instr.stopped,key_resp_7.keys,key_resp_7.rt,key_resp_7.duration,routine_wm.started,text_4.started,img1.started,text_4.stopped,text_5.started,img1.stopped,text_5.stopped,img2.started,key_resp_3.started,routine_wm.stopped,key_resp_3.keys,key_resp_3.corr,key_resp_3.rt,key_resp_3.duration,vividness.started,image_vivid.started,key_resp_vivid_slider_control.started,vividness.stopped,vivid_response,key_resp_vivid_slider_control.keys,ITI.started,text_2.started,ITI.stopped,image_vivid.stopped,key_resp_vivid_slider_control.stopped,key_resp_vivid_slider_control.rt,key_resp_vivid_slider_control.duration,text_2.stopped,strat.started,image_strat.started,key_resp_strat_control.started,strat.stopped,strategy_response,key_resp_strat_control.keys,break_2.started,break_2.stopped,key_resp_13.keys,routine_simu.started,text.started,image.started,key_resp.started,text.stopped,image.stopped,key_resp.stopped,routine_simu.stopped,key_resp.keys,key_resp.corr,key_resp.rt,key_resp.duration,key_resp_strat_control.rt,key_resp_strat_control.duration,text_17.started,key_resp_13.started,key_resp_13.rt,key_resp_13.duration,img2.stopped,key_resp_3.stopped,image_strat.stopped,key_resp_strat_control.stopped,practice_3Dd_screen.started,image_11.started,key_resp_22.started,practice_3Dd_screen.stopped,key_resp_22.keys,key_resp_22.rt,key_resp_22.duration,practice_1_3Dd.started,image_12.started,key_resp_23.started,practice_1_3Dd.stopped,key_resp_23.keys,key_resp_23.rt,key_resp_23.duration,practice_2_3Dd.started,image_13.started,key_resp_24.started,practice_2_3Dd.stopped,key_resp_24.keys,key_resp_24.rt,key_resp_24.duration,wm_3Dd_screen.started,text_16.started,key_resp_11.started,wm_3Dd_screen.stopped,key_resp_11.keys,key_resp_11.rt,key_resp_11.duration,routine_3Dd_wm.started,text_8.started,image_6.started,text_8.stopped,image_6.stopped,text_12.started,image_7.started,key_resp_6.started,text_12.stopped,routine_3Dd_wm.stopped,key_resp_6.keys,key_resp_6.corr,key_resp_6.rt,key_resp_6.duration,image_7.stopped,key_resp_6.stopped,end.started,text_22.started,key_resp_18.started,end.stopped,key_resp_18.keys,key_resp_18.rt,key_resp_18.duration,participant,session,date,expName,psychopyVersion,frameRate,expStart,
,,,,,,,,,,,,,,,,,,,,,,,,,,,,,,,,,,,,,,,,0.07333749998360872,0.07629519997863099,0.07629519997863099,3.108996599970851,rshift,3.0117371000233106,None,,,,,,,,,,,,,,,,,,,,,,,,,,,,,,,,,,,,,,,,,,,,,,,,,,,,,,,,,,,,,,,,,,,,,,,,,,,,,,,,,,,,,,,,,,,,,,,,,,,,,,,,,,,,,,,,,,,,,,,,,,,,,,,,,,,,,,,,,,,009,001,2024-06-03_16h21.48.883,ps,2023.2.3,29.899969655615923,2024-06-03 16h23.10.455792 -0400,
,,,,,,,,,,,,,,,,,,,,,,,,,,,,,,,,,,,,,,,,,,,,,,,3.109026499965694,3.1422190999728628,3.1422190999728628,10.771539799985476,rshift,7.626977199979592,None,,,,,,,,,,,,,,,,,,,,,,,,,,,,,,,,,,,,,,,,,,,,,,,,,,,,,,,,,,,,,,,,,,,,,,,,,,,,,,,,,,,,,,,,,,,,,,,,,,,,,,,,,,,,,,,,,,,,,,,,,,,,,,,,,,,,009,001,2024-06-03_16h21.48.883,ps,2023.2.3,29.899969655615923,2024-06-03 16h23.10.455792 -0400,
,,,,,,,,,,,,,,,,,,,,,,,,,,,,,,,,,,,,,,,,,,,,,,,,,,,,,,10.771557900006883,10.80389549996471,10.80389549996471,17.238320800010115,rshift,6.420721400005277,None,,,,,,,,,,,,,,,,,,,,,,,,,,,,,,,,,,,,,,,,,,,,,,,,,,,,,,,,,,,,,,,,,,,,,,,,,,,,,,,,,,,,,,,,,,,,,,,,,,,,,,,,,,,,,,,,,,,,,,,,,,,,,009,001,2024-06-03_16h21.48.883,ps,2023.2.3,29.899969655615923,2024-06-03 16h23.10.455792 -0400,
,,,,,,,,,,,,,,,,,,,,,,,,,,,,,,,,,,,,,,,,,,,,,,,,,,,,,,,,,,,,,17.238338199967984,17.27035499998601,17.27035499998601,34.146738999988884,rshift,16.865396699984558,None,,,,,,,,,,,,,,,,,,,,,,,,,,,,,,,,,,,,,,,,,,,,,,,,,,,,,,,,,,,,,,,,,,,,,,,,,,,,,,,,,,,,,,,,,,,,,,,,,,,,,,,,,,,,,,,,,,,,,,009,001,2024-06-03_16h21.48.883,ps,2023.2.3,29.899969655615923,2024-06-03 16h23.10.455792 -0400,
mini_blocks/2d_wm_mini_block_2.xlsx,"*Break*
Entering the 2D WORKING MEMORY block
Rotation is Counter/Clockwise
Press <4> to continue
               ",1,0,0,2D,None,120,False,True,6,obj1,240,0,output_pairs/2D_120_WM/2D_120_WM_06_1_obj_14_240deg.png,output_pairs/2D_120_WM/2D_120_WM_06_2_obj_14_0deg.png,182,comma,0,0,0,0,,,,,0,0,0,0,,,,,,,,,42.14122629998019,,,,,,,,,,,,,,,,,,,,,,,,,,,,,,34.15164589998312,34.17105730000185,34.17105730000185,41.971707899996545,rshift,7.781282600015402,None,41.984153099998366,42.14122629998019,43.00412170001073,43.17084529995918,46.97090279997792,47.008397199970204,47.97518869995838,47.97518869995838,47.97518869995838,52.37172409996856,comma,1,4.376654799969401,None,52.37212949997047,52.40845889999764,52.40845889999764,54.405832599964924,None,None,54.405965199985076,54.437191399978474,56.403956399997696,,,,,,,,,,,,,,,,,,,,,,,,,,,,,,,,,,,,,,,,,,,,,,,,,,,,,,,,,,,,,,,,,,,,,,,,,,,,,,,,,,,,,,,,009,001,2024-06-03_16h21.48.883,ps,2023.2.3,29.899969655615923,2024-06-03 16h23.10.455792 -0400,
mini_blocks/2d_wm_mini_block_2.xlsx,"*Break*
Entering the 2D WORKING MEMORY block
Rotation is Counter/Clockwise
Press <4> to continue
               ",1,0,0,2D,None,120,True,True,29,obj5,160,280,output_pairs/2D_120_M_WM/2D_120_M_WM_29_1_obj_5_160deg.png,output_pairs/2D_120_M_WM/2D_120_M_WM_29_2_obj_5_280deg.png,245,period,0,0,0,0,,,,,0,1,1,1,,,,,,,,,56.460305999964476,,,,,,,,,,,,,,,,,,,,,,,,,,,,,,,,,,,,,56.40420369995991,56.460305999964476,57.3752876999788,57.47528660000535,61.4038854999817,61.4038854999817,62.408564599987585,62.37529809999978,62.37529809999978,67.74256609997246,period,1,5.344826599990483,None,67.74275879998459,67.77095289999852,67.77095289999852,69.74114130000817,3.0,['slash'],69.74136859999271,69.77057970000897,71.73792839999078,69.77057970000897,69.77057970000897,[1.6935865000123158],[None],71.78562019998208,,,,,,,,,,,,,,,,,,,,,,,,,,,,,,,,,,,,,,,,,,,,,,,,,,,,,,,,,,,,,,,,,,,,,,,,,,,,,,,,,,,009,001,2024-06-03_16h21.48.883,ps,2023.2.3,29.899969655615923,2024-06-03 16h23.10.455792 -0400,
mini_blocks/2d_wm_mini_block_2.xlsx,"*Break*
Entering the 2D WORKING MEMORY block
Rotation is Counter/Clockwise
Press <4> to continue
               ",1,0,0,2D,None,0,False,True,15,obj4,160,160,output_pairs/2D_0_WM/2D_0_WM_15_1_obj_4_160deg.png,output_pairs/2D_0_WM/2D_0_WM_15_2_obj_4_160deg.png,199,comma,0,0,0,0,,,,,0,2,2,2,,,,,,,,,71.78562019998208,,,,,,,,,,,,,,,,,,,,,,,,,,,,,,,,,,,,,71.73810949997278,71.78562019998208,72.7421473999857,72.80440019996604,76.7707553000073,76.7707553000073,77.77535079995869,77.77535079995869,77.77535079995869,79.8381001999951,comma,1,2.033320599992294,None,79.83830939995823,79.8704965999932,79.8704965999932,81.84114269999554,4.0,['rshift'],81.84129409998422,81.87064979999559,83.84805979998782,81.87064979999559,81.87064979999559,[1.601160800026264],[None],,,,,,,,,,,,,,,,,,,,,,,,,,,,,,,,,,,,,,,,,,,,,,,,,,,,,,,,,,,,,,,,,,,,,,,,,,,,,,,,,,,,009,001,2024-06-03_16h21.48.883,ps,2023.2.3,29.899969655615923,2024-06-03 16h23.10.455792 -0400,
mini_blocks/2d_wm_mini_block_2.xlsx,"*Break*
Entering the 2D WORKING MEMORY block
Rotation is Counter/Clockwise
Press <4> to continue
               ",1,0,0,2D,None,0,True,True,8,obj4,140,140,output_pairs/2D_0_M_WM/2D_0_M_WM_08_1_obj_4_140deg.png,output_pairs/2D_0_M_WM/2D_0_M_WM_08_2_obj_4_140deg.png,674,period,0,0,0,0,,,,,0,3,3,3,,,,,,,,,83.89975449995836,,,,,,,,,,,,,,,,,,,,,,,,,,,,,,,,,,,,,83.84823060000781,83.89975449995836,84.83761220000451,84.9043260999606,88.8420881999773,88.8420881999773,89.87100980000105,89.83779749996029,89.83779749996029,92.50458319997415,period,1,2.6422201999812387,None,92.50478839996504,92.53734350000741,92.53734350000741,94.51033479999751,3.0,['slash'],94.5104871999938,94.54213570000138,96.54196629999205,,,[1.6381585000199266],[None],,,,,,,,,,,,,,,,,,,,,,,,,,,,,,,,,,,,,,,,,,,,,,,,,,,,,,,,,,,,,,,,,,,,,,,,,,,,,,,,,,,,009,001,2024-06-03_16h21.48.883,ps,2023.2.3,29.899969655615923,2024-06-03 16h23.10.455792 -0400,
mini_blocks/2d_wm_mini_block_2.xlsx,"*Break*
Entering the 2D WORKING MEMORY block
Rotation is Counter/Clockwise
Press <4> to continue
               ",1,0,0,2D,None,60,False,True,17,sm2,280,340,output_pairs/2D_60_WM/2D_60_WM_17_1_SM2_280deg.png,output_pairs/2D_60_WM/2D_60_WM_17_2_SM2_340deg.png,135,comma,0,0,0,0,,,,,0,4,4,4,,,,,,,,,96.58988789998693,,,,,,,,,,,,,,,,,,,,,,,,,,,,,,,,,,,,,96.54214879998472,96.58988789998693,97.50445000000764,97.60438119998435,101.50434419995872,101.50434419995872,102.50869709998369,102.50869709998369,102.50869709998369,107.50948030001018,comma,1,4.97911740001291,None,107.5097725999658,107.53777989995433,107.53777989995433,109.50818710000021,2.0,['period'],109.50835570000345,109.53742069995496,111.50924679997843,109.53742069995496,109.53742069995496,[1.7582649000105448],[None],111.56508349999785,,,,,,,,,,,,,,,,,,,,,,,,,,,,,,,,,,,,,,,,,,,,,,,,,,,,,,,,,,,,,,,,,,,,,,,,,,,,,,,,,,,009,001,2024-06-03_16h21.48.883,ps,2023.2.3,29.899969655615923,2024-06-03 16h23.10.455792 -0400,
mini_blocks/2d_wm_mini_block_2.xlsx,"*Break*
Entering the 2D WORKING MEMORY block
Rotation is Counter/Clockwise
Press <4> to continue
               ",1,0,0,2D,None,60,False,True,22,obj1,60,120,output_pairs/2D_60_WM/2D_60_WM_22_1_obj_13_60deg.png,output_pairs/2D_60_WM/2D_60_WM_22_2_obj_13_120deg.png,133,comma,0,0,0,0,,,,,0,5,5,5,,,,,,,,,111.56508349999785,,,,,,,,,,,,,,,,,,,,,,,,,,,,,,,,,,,,,111.50942069996381,111.56508349999785,112.51475839997875,112.58127999998396,116.53737959999125,116.53737959999125,117.53749429999152,117.53749429999152,117.53749429999152,119.34276079997653,comma,1,1.7738342999946326,None,119.34294880001107,119.3756493999972,119.3756493999972,121.37295689998427,None,None,121.37308459996711,121.40426509996178,123.37109049997525,,,,,,,,,,,,,,,,,,,,,,,,,,,,,,,,,,,,,,,,,,,,,,,,,,,,,,,,,,,,,,,,,,,,,,,,,,,,,,,,,,,,,,,,009,001,2024-06-03_16h21.48.883,ps,2023.2.3,29.899969655615923,2024-06-03 16h23.10.455792 -0400,
mini_blocks/2d_wm_mini_block_2.xlsx,"*Break*
Entering the 2D WORKING MEMORY block
Rotation is Counter/Clockwise
Press <4> to continue
               ",1,0,0,2D,None,0,True,True,30,obj4,340,340,output_pairs/2D_0_M_WM/2D_0_M_WM_30_1_obj_4_340deg.png,output_pairs/2D_0_M_WM/2D_0_M_WM_30_2_obj_4_340deg.png,702,period,0,0,0,0,,,,,0,6,6,6,,,,,,,,,123.41835910000373,,,,,,,,,,,,,,,,,,,,,,,,,,,,,,,,,,,,,123.3713843000005,123.41835910000373,124.34228189999703,124.4423580999719,128.3708864999935,128.3708864999935,129.37555930000963,129.33785419998458,129.33785419998458,131.57170889998088,period,1,2.2062518000020646,None,131.57191539998166,131.60404830001062,131.60404830001062,133.57736689999,None,None,133.5774548999616,133.60881129995687,135.60483649995876,,,,,,,,,,,,,,,,,,,,,,,,,,,,,,,,,,,,,,,,,,,,,,,,,,,,,,,,,,,,,,,,,,,,,,,,,,,,,,,,,,,,,,,,009,001,2024-06-03_16h21.48.883,ps,2023.2.3,29.899969655615923,2024-06-03 16h23.10.455792 -0400,
mini_blocks/2d_wm_mini_block_2.xlsx,"*Break*
Entering the 2D WORKING MEMORY block
Rotation is Counter/Clockwise
Press <4> to continue
               ",1,0,0,2D,None,180,True,True,26,obj6,320,140,output_pairs/2D_180_M_WM/2D_180_M_WM_26_1_obj_6_320deg.png,output_pairs/2D_180_M_WM/2D_180_M_WM_26_2_obj_6_140deg.png,445,period,0,0,0,0,,,,,0,7,7,7,,,,,,,,,135.6592704000068,,,,,,,,,,,,,,,,,,,,,,,,,,,,,,,,,,,,,135.60510149999755,135.6592704000068,136.57111209997674,136.67111619998468,140.57551150000654,140.57551150000654,141.5714945999789,141.5714945999789,141.5714945999789,145.07196249999106,period,1,3.468704600003548,None,145.07218249997823,145.1088388999924,145.1088388999924,147.0833857000107,2.0,['period'],147.0835517999949,147.11477109999396,149.08179339999333,,,[1.0186809999868274],[None],,,,,,,,,,,,,,,,,,,,,,,,,,,,,,,,,,,,,,,,,,,,,,,,,,,,,,,,,,,,,,,,,,,,,,,,,,,,,,,,,,,,009,001,2024-06-03_16h21.48.883,ps,2023.2.3,29.899969655615923,2024-06-03 16h23.10.455792 -0400,
mini_blocks/2d_wm_mini_block_2.xlsx,"*Break*
Entering the 2D WORKING MEMORY block
Rotation is Counter/Clockwise
Press <4> to continue
               ",1,0,0,2D,None,120,True,True,16,obj3,100,220,output_pairs/2D_120_M_WM/2D_120_M_WM_16_1_obj_3_100deg.png,output_pairs/2D_120_M_WM/2D_120_M_WM_16_2_obj_3_220deg.png,238,period,0,0,0,0,,,,,0,8,8,8,,,,,,,,,149.14445530000376,,,,,,,,,,,,,,,,,,,,,,,,,,,,,,,,,,,,,149.08201149996603,149.14445530000376,150.07118639996042,150.17123809998157,154.10428400000092,154.07104529999197,155.10898239997914,155.07561359996907,155.07561359996907,159.20567920000758,period,1,4.124753399984911,None,159.2058801999665,159.2379987000022,159.2379987000022,161.20832259999588,2.0,['period'],161.2084715999663,161.2375438999734,163.20493639999768,161.2375438999734,161.2375438999734,[1.1787706000031903],[None],163.262660999957,,,,,,,,,,,,,,,,,,,,,,,,,,,,,,,,,,,,,,,,,,,,,,,,,,,,,,,,,,,,,,,,,,,,,,,,,,,,,,,,,,,009,001,2024-06-03_16h21.48.883,ps,2023.2.3,29.899969655615923,2024-06-03 16h23.10.455792 -0400,
mini_blocks/2d_wm_mini_block_2.xlsx,"*Break*
Entering the 2D WORKING MEMORY block
Rotation is Counter/Clockwise
Press <4> to continue
               ",1,0,0,2D,None,180,False,True,13,obj2,160,340,output_pairs/2D_180_WM/2D_180_WM_13_1_obj_2_160deg.png,output_pairs/2D_180_WM/2D_180_WM_13_2_obj_2_340deg.png,723,comma,0,0,0,0,,,,,0,9,9,9,,,,,,,,,163.262660999957,,,,,,,,,,,,,,,,,,,,,,,,,,,,,,,,,,,,,163.2051171999774,163.262660999957,164.20914029999403,164.27575450000586,168.2089760999661,168.2089760999661,169.2090241999831,169.2090241999831,169.2090241999831,171.3383966999827,comma,1,2.1120113000506535,None,171.33859999995911,171.37128049996682,171.37128049996682,173.34412789996713,3.0,['slash'],173.3442950999597,173.37565489998087,175.37146860000212,,,[1.2936422000057064],[None],,,,,,,,,,,,,,,,,,,,,,,,,,,,,,,,,,,,,,,,,,,,,,,,,,,,,,,,,,,,,,,,,,,,,,,,,,,,,,,,,,,,009,001,2024-06-03_16h21.48.883,ps,2023.2.3,29.899969655615923,2024-06-03 16h23.10.455792 -0400,
mini_blocks/2d_wm_mini_block_2.xlsx,"*Break*
Entering the 2D WORKING MEMORY block
Rotation is Counter/Clockwise
Press <4> to continue
               ",1,0,0,2D,None,180,True,True,4,obj5,80,260,output_pairs/2D_180_M_WM/2D_180_M_WM_04_1_obj_5_80deg.png,output_pairs/2D_180_M_WM/2D_180_M_WM_04_2_obj_5_260deg.png,430,period,0,0,0,0,,,,,0,10,10,10,,,,,,,,,175.41874839999946,,,,,,,,,,,,,,,,,,,,,,,,,,,,,,,,,,,,,175.37176509998972,175.41874839999946,176.33813699998427,176.44829049997497,180.33808769995812,180.33808769995812,181.33799009997165,181.33799009997165,181.33799009997165,182.97227369999746,comma,0,1.6222272000159137,None,182.97247370000696,183.00455760001205,183.00455760001205,184.9750337000005,2.0,['period'],184.9751801000093,185.004317599989,186.98170229996322,185.004317599989,185.004317599989,[1.5560995999840088],[None],,,,,,,,,,,,,,,,,,,,,,,,,,,,,,,,,,,,,,,,,,,,,,,,,,,,,,,,,,,,,,,,,,,,,,,,,,,,,,,,,,,,009,001,2024-06-03_16h21.48.883,ps,2023.2.3,29.899969655615923,2024-06-03 16h23.10.455792 -0400,
mini_blocks/2d_wm_mini_block_2.xlsx,"*Break*
Entering the 2D WORKING MEMORY block
Rotation is Counter/Clockwise
Press <4> to continue
               ",1,0,0,2D,None,60,True,True,19,sm1,40,100,output_pairs/2D_60_M_WM/2D_60_M_WM_19_1_SM1_40deg.png,output_pairs/2D_60_M_WM/2D_60_M_WM_19_2_SM1_100deg.png,625,period,0,0,0,0,,,,,0,11,11,11,,,,,,,,,187.0441378999967,,,,,,,,,,,,,,,,,,,,,,,,,,,,,,,,,,,,,186.98188229999505,187.0441378999967,188.00474229996325,188.07124059996568,191.97567620000336,192.00914719997672,192.97570519999135,192.97570519999135,192.97570519999135,195.97214430000167,period,1,2.9680773000000045,None,195.9723534999648,196.00446259998716,196.00446259998716,197.97760290000588,2.0,['period'],197.97780039999634,198.0090799999889,200.00488229998155,,,[1.220496500027366],[None],,,,,,,,,,,,,,,,,,,,,,,,,,,,,,,,,,,,,,,,,,,,,,,,,,,,,,,,,,,,,,,,,,,,,,,,,,,,,,,,,,,,009,001,2024-06-03_16h21.48.883,ps,2023.2.3,29.899969655615923,2024-06-03 16h23.10.455792 -0400,
mini_blocks/2d_wm_mini_block_2.xlsx,"*Break*
Entering the 2D WORKING MEMORY block
Rotation is Counter/Clockwise
Press <4> to continue
               ",1,0,0,2D,None,180,False,True,15,sm3,20,200,output_pairs/2D_180_WM/2D_180_WM_15_1_SM3_20deg.png,output_pairs/2D_180_WM/2D_180_WM_15_2_SM3_200deg.png,706,comma,0,0,0,0,,,,,0,12,12,12,,,,,,,,,200.0497747999616,,,,,,,,,,,,,,,,,,,,,,,,,,,,,,,,,,,,,200.0051255999715,200.0497747999616,200.9819801999838,201.08163579995744,204.9757966999896,205.00911899999483,205.97587460000068,205.97587460000068,205.97587460000068,211.1161116999574,comma,1,5.135980599967297,None,211.11631209996995,211.148408500012,211.148408500012,213.13986259995727,3.0,['slash'],213.1400208999985,213.1711215999676,215.14274559996556,,,[1.7328529999940656],[None],,,,,,,,,,,,,,,,,,,,,,,,,,,,,,,,,,,,,,,,,,,,,,,,,,,,,,,,,,,,,,,,,,,,,,,,,,,,,,,,,,,,009,001,2024-06-03_16h21.48.883,ps,2023.2.3,29.899969655615923,2024-06-03 16h23.10.455792 -0400,
mini_blocks/2d_wm_mini_block_2.xlsx,"*Break*
Entering the 2D WORKING MEMORY block
Rotation is Counter/Clockwise
Press <4> to continue
               ",1,0,0,2D,None,0,False,True,7,obj2,240,240,output_pairs/2D_0_WM/2D_0_WM_07_1_obj_2_240deg.png,output_pairs/2D_0_WM/2D_0_WM_07_2_obj_2_240deg.png,223,comma,0,0,0,0,,,,,0,13,13,13,,,,,,,,,215.19899790000636,,,,,,,,,,,,,,,,,,,,,,,,,,,,,,,,,,,,,215.14292079996085,215.19899790000636,216.1487556999782,216.21525750000728,220.14264779997757,220.17583149997517,221.17584209999768,221.1381579999579,221.1381579999579,222.4724313999759,comma,1,1.3259918999974616,None,222.47264120000182,222.50485249998746,222.50485249998746,224.47624849999556,4.0,['rshift'],224.47641609999118,224.50448949995916,226.4761438999558,224.50448949995916,224.50448949995916,[1.679954200051725],[None],,,,,,,,,,,,,,,,,,,,,,,,,,,,,,,,,,,,,,,,,,,,,,,,,,,,,,,,,,,,,,,,,,,,,,,,,,,,,,,,,,,,009,001,2024-06-03_16h21.48.883,ps,2023.2.3,29.899969655615923,2024-06-03 16h23.10.455792 -0400,
mini_blocks/2d_wm_mini_block_2.xlsx,"*Break*
Entering the 2D WORKING MEMORY block
Rotation is Counter/Clockwise
Press <4> to continue
               ",1,0,0,2D,None,60,True,True,17,obj1,140,80,output_pairs/2D_60_M_WM/2D_60_M_WM_17_1_obj_14_140deg.png,output_pairs/2D_60_M_WM/2D_60_M_WM_17_2_obj_14_80deg.png,622,period,0,0,0,0,,,,,0,14,14,14,,,,,,,,,226.53182559995912,,,,,,,,,,,,,,,,,,,,,,,,,,,,,,,,,,,,,226.4764162999927,226.53182559995912,227.4817509999848,227.53824629995506,231.50461679999717,231.50461679999717,232.50453899998683,232.50453899998683,232.50453899998683,235.24321419995977,period,1,2.7121107999701053,None,235.24340749997646,235.27593129995512,235.27593129995512,237.273449899978,3.0,['slash'],237.27363419998437,237.3046258999966,239.27603989996715,,,[1.3886284999898635],[None],,,,,,,,,,,,,,,,,,,,,,,,,,,,,,,,,,,,,,,,,,,,,,,,,,,,,,,,,,,,,,,,,,,,,,,,,,,,,,,,,,,,009,001,2024-06-03_16h21.48.883,ps,2023.2.3,29.899969655615923,2024-06-03 16h23.10.455792 -0400,
mini_blocks/2d_wm_mini_block_2.xlsx,"*Break*
Entering the 2D WORKING MEMORY block
Rotation is Counter/Clockwise
Press <4> to continue
               ",1,0,0,2D,None,120,False,True,5,sm4,20,260,output_pairs/2D_120_WM/2D_120_WM_05_1_SM4_20deg.png,output_pairs/2D_120_WM/2D_120_WM_05_2_SM4_260deg.png,162,comma,0,0,0,0,,,,,0,15,15,15,,,,,,,,,239.32315159996506,,,,,,,,,,,,,,,,,,,,,,,,,,,,,,,,,,,,,239.27633349999087,239.32315159996506,240.2485641000094,240.34865770000033,244.27128990000347,244.27128990000347,245.27599469997222,245.2426800999674,245.2426800999674,248.6390260999906,comma,1,3.381730700028129,None,248.63922989997081,248.671470900008,248.671470900008,250.64455979998456,3.0,['slash'],250.64474319998408,250.67599139997037,252.67615039995871,,,[0.9772184999892488],[None],,,,,,,,,,,,,,,,,,,,,,,,,,,,,,,,,,,,,,,,,,,,,,,,,,,,,,,,,,,,,,,,,,,,,,,,,,,,,,,,,,,,009,001,2024-06-03_16h21.48.883,ps,2023.2.3,29.899969655615923,2024-06-03 16h23.10.455792 -0400,
mini_blocks/2d_wm_mini_block_2.xlsx,"*Break*
Entering the 2D WORKING MEMORY block
Rotation is Counter/Clockwise
Press <4> to continue
               ",1,0,0,,,,,,,,,,,,,,0,0,0,0,,,,,,,,,,,,,,,,,,,,,,,,,,,,,,,,,,,,,,,,,,,,,,,,,,,,,,,,,,,,,,,,,,,,,,,,,,,,,,,,,,252.67622689995915,252.70500169997104,252.70500169997104,260.6734400999849,None,None,260.6735620999825,260.67358790000435,None,,,,,,,,,,,,,,,,,,,,,,,,,,,,,,,,,,,,,,,,,,,,,,,,,,,,,,,,,,,,,,,,,,,,,,,,,,009,001,2024-06-03_16h21.48.883,ps,2023.2.3,29.899969655615923,2024-06-03 16h23.10.455792 -0400,
mini_blocks/2d_single_mini_block_2.xlsx,"*Break*
Entering the 2D SIMULTANEOUS block
Rotation is Counter/Clockwise
Press <4> to continue",0,1,0,2D,None,180,True,False,None,sm1,220,40,output_pairs/2D_180m/2D_180m_SM1_220_to_40deg.png,None,1361,period,0,1,1,1,0,0,0,0,,,,,,,,,,,,,263.0167521999683,,,,,,,,,,,,,,,,,,,,,,,,,,,,,,260.673757499957,260.7046786999563,260.7046786999563,262.91017759998795,rshift,2.1921927999937907,None,,,,,,,,,,,,,,,272.90990309999324,272.9424265999696,272.9424265999696,274.9445034000091,None,None,274.94462929997826,274.9724306999706,276.93855469999835,,,,,,,,,,,,,,,262.9170038999873,263.0167521999683,263.90953129995614,263.90953129995614,264.04258309997385,272.9424265999696,272.9424265999696,272.90969429997494,None,0,,,,,,,,,,,,,,,,,,,,,,,,,,,,,,,,,,,,,,,,,,,,,,,,,,,,,,,,,,,,,,,,009,001,2024-06-03_16h21.48.883,ps,2023.2.3,29.899969655615923,2024-06-03 16h23.10.455792 -0400,
mini_blocks/2d_single_mini_block_2.xlsx,"*Break*
Entering the 2D SIMULTANEOUS block
Rotation is Counter/Clockwise
Press <4> to continue",0,1,0,2D,None,120,False,False,None,obj7,300,60,output_pairs/2D_120/2D_120_obj_7_300_to_60deg.png,None,1095,comma,0,1,1,1,0,1,1,1,,,,,,,,,,,,,276.9900695999968,,,,,,,,,,,,,,,,,,,,,,,,,,,,,,,,,,,,,,,,,,,,,,,,,,,281.30566099996213,281.3381299999892,281.3381299999892,283.3112745999824,None,None,283.3113607999985,283.3427643000032,285.3385048999917,,,,,,,,,,,,,,,276.93886799999746,276.9900695999968,277.9384593999712,277.9384593999712,278.00510010001017,,,281.3053963999846,period,0,3.333596699987538,None,,,,,,,,,,,,,,,,,,,,,,,,,,,,,,,,,,,,,,,,,,,,,,,,,,,,,,,,,,,,,,009,001,2024-06-03_16h21.48.883,ps,2023.2.3,29.899969655615923,2024-06-03 16h23.10.455792 -0400,
mini_blocks/2d_single_mini_block_2.xlsx,"*Break*
Entering the 2D SIMULTANEOUS block
Rotation is Counter/Clockwise
Press <4> to continue",0,1,0,2D,None,60,False,False,None,obj2,120,180,output_pairs/2D_60/2D_60_obj_2_120_to_180deg.png,None,956,comma,0,1,1,1,0,2,2,2,,,,,,,,,,,,,285.3846043999656,,,,,,,,,,,,,,,,,,,,,,,,,,,,,,,,,,,,,,,,,,,,,,,,,,,290.47341469995445,290.50917410000693,290.50917410000693,292.5065382999601,4.0,['rshift'],292.50676039996324,292.53821430000244,294.50969849998364,,,[1.2753375999745913],[None],,,,,,,,,,,285.3387415999896,285.3846043999656,286.30955249996623,286.30955249996623,286.409220099973,,,290.4732137999963,comma,1,4.162880499963649,None,,,,,,,,,,,,,,,,,,,,,,,,,,,,,,,,,,,,,,,,,,,,,,,,,,,,,,,,,,,,,,009,001,2024-06-03_16h21.48.883,ps,2023.2.3,29.899969655615923,2024-06-03 16h23.10.455792 -0400,
mini_blocks/2d_single_mini_block_2.xlsx,"*Break*
Entering the 2D SIMULTANEOUS block
Rotation is Counter/Clockwise
Press <4> to continue",0,1,0,2D,None,0,False,False,None,obj1,340,None,output_pairs/2D_0/2D_0_obj_13_340deg.png,None,1997,comma,0,1,1,1,0,3,3,3,,,,,,,,,,,,,294.55616779997945,,,,,,,,,,,,,,,,,,,,,,,,,,,,,,,,,,,,,,,,,,,,,,,,,,,296.8060952000087,296.8381040999666,296.8381040999666,298.81144679995487,4.0,['rshift'],298.81159659998957,298.842872899957,300.8097329000011,,,[0.874091400008183],[None],,,,,,,,,,,294.5098710999591,294.55616779997945,295.4763821999659,295.4763821999659,295.58213329996215,,,296.8058874999988,comma,1,1.300042700022459,None,,,,,,,,,,,,,,,,,,,,,,,,,,,,,,,,,,,,,,,,,,,,,,,,,,,,,,,,,,,,,,009,001,2024-06-03_16h21.48.883,ps,2023.2.3,29.899969655615923,2024-06-03 16h23.10.455792 -0400,
mini_blocks/2d_single_mini_block_2.xlsx,"*Break*
Entering the 2D SIMULTANEOUS block
Rotation is Counter/Clockwise
Press <4> to continue",0,1,0,2D,None,180,False,False,None,obj1,240,60,output_pairs/2D_180/2D_180_obj_10_240_to_60deg.png,None,1076,comma,0,1,1,1,0,4,4,4,,,,,,,,,,,,,300.84883799997624,,,,,,,,,,,,,,,,,,,,,,,,,,,,,,,,,,,,,,,,,,,,,,,,,,,310.2058731999714,310.238280199992,310.238280199992,312.2113185999915,None,None,312.2114047000068,312.2387052999693,314.2055196999572,,,,,314.24168129998725,,,,,,,,,,300.8099169000052,300.84883799997624,301.80524620000506,301.80524620000506,301.87184859998524,,,310.2056653999607,period,0,8.370875500026159,None,,,,,,,,,,,,,,,,,,,,,,,,,,,,,,,,,,,,,,,,,,,,,,,,,,,,,,,,,,,,,,009,001,2024-06-03_16h21.48.883,ps,2023.2.3,29.899969655615923,2024-06-03 16h23.10.455792 -0400,
mini_blocks/2d_single_mini_block_2.xlsx,"*Break*
Entering the 2D SIMULTANEOUS block
Rotation is Counter/Clockwise
Press <4> to continue",0,1,0,2D,None,180,True,False,None,obj8,40,220,output_pairs/2D_180m/2D_180m_obj_8_40_to_220deg.png,None,1363,period,0,1,1,1,0,5,5,5,,,,,,,,,,,,,314.24168129998725,,,,,,,,,,,,,,,,,,,,,,,,,,,,,,,,,,,,,,,,,,,,,,,,,,,318.5394966999884,318.57173379999585,318.57173379999585,320.5446952999919,3.0,['slash'],320.54484519996913,320.57626259996323,322.57643049996113,,,[1.2683662000345066],[None],,,,,,,,,,,314.2056840999867,314.24168129998725,315.2053160999785,315.2053160999785,315.2719717999571,,,318.539168599993,period,1,3.3075109999626875,None,,,,,,,,,,,,,,,,,,,,,,,,,,,,,,,,,,,,,,,,,,,,,,,,,,,,,,,,,,,,,,009,001,2024-06-03_16h21.48.883,ps,2023.2.3,29.899969655615923,2024-06-03 16h23.10.455792 -0400,
mini_blocks/2d_single_mini_block_2.xlsx,"*Break*
Entering the 2D SIMULTANEOUS block
Rotation is Counter/Clockwise
Press <4> to continue",0,1,0,2D,None,0,True,False,None,obj1,300,None,output_pairs/2D_0m/2D_0m_obj_14_300deg.png,None,1124,period,0,1,1,1,0,6,6,6,,,,,,,,,,,,,322.6143144000089,,,,,,,,,,,,,,,,,,,,,,,,,,,,,,,,,,,,,,,,,,,,,,,,,,,324.9058296000003,324.93831559998216,324.93831559998216,326.9114228999824,4.0,['rshift'],326.9115667999722,326.9388074000017,328.90587279998,,,[1.085917199961841],[None],328.9511216999963,,,,,,,,,,322.57661469996674,322.6143144000089,323.5387963000103,323.5387963000103,323.6155374000082,,,324.9056261999649,period,1,1.364816699991934,None,,,,,,,,,,,,,,,,,,,,,,,,,,,,,,,,,,,,,,,,,,,,,,,,,,,,,,,,,,,,,,009,001,2024-06-03_16h21.48.883,ps,2023.2.3,29.899969655615923,2024-06-03 16h23.10.455792 -0400,
mini_blocks/2d_single_mini_block_2.xlsx,"*Break*
Entering the 2D SIMULTANEOUS block
Rotation is Counter/Clockwise
Press <4> to continue",0,1,0,2D,None,60,True,False,None,obj1,160,220,output_pairs/2D_60m/2D_60m_obj_10_160_to_220deg.png,None,551,period,0,1,1,1,0,7,7,7,,,,,,,,,,,,,328.9511216999963,,,,,,,,,,,,,,,,,,,,,,,,,,,,,,,,,,,,,,,,,,,,,,,,,,,334.71064219996333,334.7388711000094,334.7388711000094,336.7090774999815,4.0,['rshift'],336.70922819996485,336.7384037000011,338.7102768999757,336.7384037000011,336.7384037000011,[1.509389100014232],[None],338.7552388999611,,,,,,,,,,328.90604599996004,328.9511216999963,329.91559379996033,329.91559379996033,329.98235469998326,,,334.71045019995654,period,1,4.781327400007285,None,,,,,,,,,,,,,,,,,,,,,,,,,,,,,,,,,,,,,,,,,,,,,,,,,,,,,,,,,,,,,,009,001,2024-06-03_16h21.48.883,ps,2023.2.3,29.899969655615923,2024-06-03 16h23.10.455792 -0400,
mini_blocks/2d_single_mini_block_2.xlsx,"*Break*
Entering the 2D SIMULTANEOUS block
Rotation is Counter/Clockwise
Press <4> to continue",0,1,0,2D,None,0,False,False,None,obj4,280,None,output_pairs/2D_0/2D_0_obj_4_280deg.png,None,2011,comma,0,1,1,1,0,8,8,8,,,,,,,,,,,,,338.7552388999611,,,,,,,,,,,,,,,,,,,,,,,,,,,,,,,,,,,,,,,,,,,,,,,,,,,341.80626330000814,341.83843559998786,341.83843559998786,343.8115164999617,4.0,['rshift'],343.8116677000071,343.84307719999924,345.8158887999598,,,[1.5142110000015236],[None],,,,,,,,,,,338.710445899982,338.7552388999611,339.7158345999778,339.7158345999778,339.78209019999485,,,341.8060543999891,comma,1,2.0693375999690033,None,,,,,,,,,,,,,,,,,,,,,,,,,,,,,,,,,,,,,,,,,,,,,,,,,,,,,,,,,,,,,,009,001,2024-06-03_16h21.48.883,ps,2023.2.3,29.899969655615923,2024-06-03 16h23.10.455792 -0400,
mini_blocks/2d_single_mini_block_2.xlsx,"*Break*
Entering the 2D SIMULTANEOUS block
Rotation is Counter/Clockwise
Press <4> to continue",0,1,0,2D,None,180,False,False,None,obj9,60,240,output_pairs/2D_180/2D_180_obj_9_60_to_240deg.png,None,1056,comma,0,1,1,1,0,9,9,9,,,,,,,,,,,,,345.8584569999948,,,,,,,,,,,,,,,,,,,,,,,,,,,,,,,,,,,,,,,,,,,,,,,,,,,351.4436708999565,351.4761621999787,351.4761621999787,353.4840861999546,3.0,['slash'],353.48424059996614,353.5156807999592,355.4824218999711,,,[0.8768834000220522],[None],,,,,,,,,,,345.8160776000004,345.8584569999948,346.8054974999977,346.8054974999977,346.8722080999869,,,351.4434481000062,period,0,4.618132100033108,None,,,,,,,,,,,,,,,,,,,,,,,,,,,,,,,,,,,,,,,,,,,,,,,,,,,,,,,,,,,,,,009,001,2024-06-03_16h21.48.883,ps,2023.2.3,29.899969655615923,2024-06-03 16h23.10.455792 -0400,
mini_blocks/2d_single_mini_block_2.xlsx,"*Break*
Entering the 2D SIMULTANEOUS block
Rotation is Counter/Clockwise
Press <4> to continue",0,1,0,2D,None,120,True,False,None,obj1,200,320,output_pairs/2D_120m/2D_120m_obj_13_200_to_320deg.png,None,1383,period,0,1,1,1,0,10,10,10,,,,,,,,,,,,,355.5312590000103,,,,,,,,,,,,,,,,,,,,,,,,,,,,,,,,,,,,,,,,,,,,,,,,,,,359.6726065999828,359.70492689998355,359.70492689998355,361.678810399957,4.0,['rshift'],361.6789816999808,361.7097662999877,363.68269270000746,,,[1.4721426999894902],[None],,,,,,,,,,,355.4825998999877,355.5312590000103,356.47212489997037,356.47212489997037,356.53882179997163,,,359.6723848999827,period,1,3.175898799963761,None,,,,,,,,,,,,,,,,,,,,,,,,,,,,,,,,,,,,,,,,,,,,,,,,,,,,,,,,,,,,,,009,001,2024-06-03_16h21.48.883,ps,2023.2.3,29.899969655615923,2024-06-03 16h23.10.455792 -0400,
mini_blocks/2d_single_mini_block_2.xlsx,"*Break*
Entering the 2D SIMULTANEOUS block
Rotation is Counter/Clockwise
Press <4> to continue",0,1,0,2D,None,60,False,False,None,obj8,300,0,output_pairs/2D_60/2D_60_obj_8_300_to_0deg.png,None,935,comma,0,1,1,1,0,11,11,11,,,,,,,,,,,,,363.7320728999912,,,,,,,,,,,,,,,,,,,,,,,,,,,,,,,,,,,,,,,,,,,,,,,,,,,369.3437688999693,369.3723947000108,369.3723947000108,371.3424237999716,3.0,['slash'],371.3425750999595,371.37176010000985,373.3392529999837,371.37176010000985,371.37176010000985,[1.3397513999952935],[None],373.3851494999835,,,,,,,,,,363.6828688000096,363.7320728999912,364.67218920000596,364.67218920000596,364.7388658999698,,,369.3435530999559,comma,1,4.639337499975227,None,,,,,,,,,,,,,,,,,,,,,,,,,,,,,,,,,,,,,,,,,,,,,,,,,,,,,,,,,,,,,,009,001,2024-06-03_16h21.48.883,ps,2023.2.3,29.899969655615923,2024-06-03 16h23.10.455792 -0400,
mini_blocks/2d_single_mini_block_2.xlsx,"*Break*
Entering the 2D SIMULTANEOUS block
Rotation is Counter/Clockwise
Press <4> to continue",0,1,0,2D,None,60,True,False,None,obj1,140,200,output_pairs/2D_60m/2D_60m_obj_11_140_to_200deg.png,None,557,period,0,1,1,1,0,12,12,12,,,,,,,,,,,,,373.3851494999835,,,,,,,,,,,,,,,,,,,,,,,,,,,,,,,,,,,,,,,,,,,,,,,,,,,376.80637919995934,376.8385847999598,376.8385847999598,378.80929909995757,4.0,['rshift'],378.80944969999837,378.8387643999886,380.8158543999889,378.8387643999886,378.8387643999886,[1.2579918999690562],[None],,,,,,,,,,,373.33943200000795,373.3851494999835,374.34338949999074,374.34338949999074,374.40970540000126,,,376.80616909998935,period,1,2.456385300029069,None,,,,,,,,,,,,,,,,,,,,,,,,,,,,,,,,,,,,,,,,,,,,,,,,,,,,,,,,,,,,,,009,001,2024-06-03_16h21.48.883,ps,2023.2.3,29.899969655615923,2024-06-03 16h23.10.455792 -0400,
mini_blocks/2d_single_mini_block_2.xlsx,"*Break*
Entering the 2D SIMULTANEOUS block
Rotation is Counter/Clockwise
Press <4> to continue",0,1,0,2D,None,120,False,False,None,sm2,340,100,output_pairs/2D_120/2D_120_SM2_340_to_100deg.png,None,1106,comma,0,1,1,1,0,13,13,13,,,,,,,,,,,,,380.8642552999663,,,,,,,,,,,,,,,,,,,,,,,,,,,,,,,,,,,,,,,,,,,,,,,,,,,385.4398955999641,385.4720944999717,385.4720944999717,387.44503040000563,4.0,['rshift'],387.44517859996995,387.4723728999961,389.4393767999718,,,[1.1361045999801718],[None],389.4847938999883,,,,,,,,,,380.81606049998663,380.8642552999663,381.80976380000357,381.80976380000357,381.87628319999203,,,385.43967240001075,comma,1,3.6227089000167325,None,,,,,,,,,,,,,,,,,,,,,,,,,,,,,,,,,,,,,,,,,,,,,,,,,,,,,,,,,,,,,,009,001,2024-06-03_16h21.48.883,ps,2023.2.3,29.899969655615923,2024-06-03 16h23.10.455792 -0400,
mini_blocks/2d_single_mini_block_2.xlsx,"*Break*
Entering the 2D SIMULTANEOUS block
Rotation is Counter/Clockwise
Press <4> to continue",0,1,0,2D,None,0,True,False,None,obj1,280,None,output_pairs/2D_0m/2D_0m_obj_13_280deg.png,None,1132,period,0,1,1,1,0,14,14,14,,,,,,,,,,,,,389.4847938999883,,,,,,,,,,,,,,,,,,,,,,,,,,,,,,,,,,,,,,,,,,,,,,,,,,,392.7397340000025,392.7720319000073,392.7720319000073,394.7428154000081,4.0,['rshift'],394.7429701999645,394.77231549995486,396.7395729999989,394.77231549995486,394.77231549995486,[1.1963924000156112],[None],396.7857122999849,,,,,,,,,,389.4395491000032,389.4847938999883,390.4723162999726,390.4723162999726,390.50557879998814,,,392.73952639999334,period,1,2.2405542000196874,None,,,,,,,,,,,,,,,,,,,,,,,,,,,,,,,,,,,,,,,,,,,,,,,,,,,,,,,,,,,,,,009,001,2024-06-03_16h21.48.883,ps,2023.2.3,29.899969655615923,2024-06-03 16h23.10.455792 -0400,
mini_blocks/2d_single_mini_block_2.xlsx,"*Break*
Entering the 2D SIMULTANEOUS block
Rotation is Counter/Clockwise
Press <4> to continue",0,1,0,2D,None,120,True,False,None,sm1,180,300,output_pairs/2D_120m/2D_120m_SM1_180_to_300deg.png,None,1382,period,0,1,1,1,0,15,15,15,,,,,,,,,,,,,396.7857122999849,,,,,,,,,,,,,,,,,,,,,,,,,,,,,,,,,,,,,,,,,,,,,,,,,,,400.6398859999608,400.67631640000036,400.67631640000036,402.6783518999582,4.0,['rshift'],402.6784985999693,402.70997899997747,404.67666669999016,,,[0.8846259000129066],[None],,,,,,,,,,,396.73975429998245,396.7857122999849,397.73894209996797,397.73894209996797,397.8057293999591,,,400.63966909999726,period,1,2.8767746000085026,None,,,,,,,,,,,,,,,,,,,,,,,,,,,,,,,,,,,,,,,,,,,,,,,,,,,,,,,,,,,,,,009,001,2024-06-03_16h21.48.883,ps,2023.2.3,29.899969655615923,2024-06-03 16h23.10.455792 -0400,
mini_blocks/2d_single_mini_block_2.xlsx,"*Break*
Entering the 2D SIMULTANEOUS block
Rotation is Counter/Clockwise
Press <4> to continue",0,1,0,,,,,,,,,,,,,,0,1,1,1,,,,,,,,,,,,,,,,,,,,,,,,,,,,,,,,,,,,,,,,,,,,,,,,,,,,,,,,,,,,,,,,,,,,,,,,,,,,,,,,,,404.6830045999959,404.7099537999602,404.7099537999602,412.6741956999758,2.0,['period'],412.67460490000667,412.6746611999697,None,,,,,,,,,,,,,[2.178333099989686],[None],,,,,,,,,,,,,,,,,,,,,,,,,,,,,,,,,,,,,,,,,,,,,,,,,,,,,,,,,,,,009,001,2024-06-03_16h21.48.883,ps,2023.2.3,29.899969655615923,2024-06-03 16h23.10.455792 -0400,
mini_blocks/2d_single_mini_block_1.xlsx,"*Break*
Entering the 2D SIMULTANEOUS block
Rotation is Counter/Clockwise
Press <4> to continue",0,1,0,2D,None,180,False,False,None,obj9,60,240,output_pairs/2D_180/2D_180_obj_9_60_to_240deg.png,None,1056,comma,0,2,2,2,0,0,0,0,,,,,,,,,,,,,417.2831045999774,,,,,,,,,,,,,,,,,,,,,,,,,,,,,,412.6748251999961,412.7055000999826,412.7055000999826,417.2396912999684,rshift,4.503050799947232,None,,,,,,,,,,,,,,,427.2434963999549,427.2766702999943,427.2766702999943,429.2452588999877,None,None,429.24539249995723,429.276747099997,431.2726325999829,,,,,,,,,,,,,,,417.2459689999814,417.2831045999774,418.24964829999954,418.24964829999954,418.2829120999668,,,427.2432485999889,None,0,,,,,,,,,,,,,,,,,,,,,,,,,,,,,,,,,,,,,,,,,,,,,,,,,,,,,,,,,,,,,,,,009,001,2024-06-03_16h21.48.883,ps,2023.2.3,29.899969655615923,2024-06-03 16h23.10.455792 -0400,
mini_blocks/2d_single_mini_block_1.xlsx,"*Break*
Entering the 2D SIMULTANEOUS block
Rotation is Counter/Clockwise
Press <4> to continue",0,1,0,2D,None,60,False,False,None,sm2,20,80,output_pairs/2D_60/2D_60_SM2_20_to_80deg.png,None,929,comma,0,2,2,2,0,1,1,1,,,,,,,,,,,,,431.31939959997544,,,,,,,,,,,,,,,,,,,,,,,,,,,,,,,,,,,,,,,,,,,,,,,,,,,434.7069349999656,434.73909200000344,434.73909200000344,436.7120394000085,4.0,['rshift'],436.71234899997944,436.7391301000025,438.70630799996434,,,[0.9977491999743506],[None],438.74318039999343,,,,,,,,,,431.2729412000044,431.31939959997544,432.2493442999548,432.2493442999548,432.33911939995596,,,434.70666839997284,comma,1,2.447892200027127,None,,,,,,,,,,,,,,,,,,,,,,,,,,,,,,,,,,,,,,,,,,,,,,,,,,,,,,,,,,,,,,009,001,2024-06-03_16h21.48.883,ps,2023.2.3,29.899969655615923,2024-06-03 16h23.10.455792 -0400,
mini_blocks/2d_single_mini_block_1.xlsx,"*Break*
Entering the 2D SIMULTANEOUS block
Rotation is Counter/Clockwise
Press <4> to continue",0,1,0,2D,None,120,False,False,None,obj7,300,60,output_pairs/2D_120/2D_120_obj_7_300_to_60deg.png,None,1095,comma,0,2,2,2,0,2,2,2,,,,,,,,,,,,,438.74318039999343,,,,,,,,,,,,,,,,,,,,,,,,,,,,,,,,,,,,,,,,,,,,,,,,,,,443.8400733000017,443.87232079997193,443.87232079997193,445.84542169998167,4.0,['rshift'],445.84569469996495,445.8769391999813,447.8726871999679,,,[1.3676430000341497],[None],,,,,,,,,,,438.7064865999855,438.74318039999343,439.7434121000115,439.7434121000115,439.7434121000115,,,443.8398643999826,comma,1,4.0895412000245415,None,,,,,,,,,,,,,,,,,,,,,,,,,,,,,,,,,,,,,,,,,,,,,,,,,,,,,,,,,,,,,,009,001,2024-06-03_16h21.48.883,ps,2023.2.3,29.899969655615923,2024-06-03 16h23.10.455792 -0400,
mini_blocks/2d_single_mini_block_1.xlsx,"*Break*
Entering the 2D SIMULTANEOUS block
Rotation is Counter/Clockwise
Press <4> to continue",0,1,0,2D,None,120,True,False,None,sm4,60,180,output_pairs/2D_120m/2D_120m_SM4_60_to_180deg.png,None,1393,period,0,2,2,2,0,3,3,3,,,,,,,,,,,,,447.9101936999941,,,,,,,,,,,,,,,,,,,,,,,,,,,,,,,,,,,,,,,,,,,,,,,,,,,450.4734787999769,450.50541320000775,450.50541320000775,452.47946919995593,4.0,['rshift'],452.4796788999811,452.5059977999772,454.4731492999708,,,[0.7747380000073463],[None],454.5183698000037,,,,,,,,,,447.8729622999672,447.9101936999941,448.8494199999841,448.8494199999841,448.91652829997474,,,450.4732646999764,comma,0,1.615423200011719,None,,,,,,,,,,,,,,,,,,,,,,,,,,,,,,,,,,,,,,,,,,,,,,,,,,,,,,,,,,,,,,009,001,2024-06-03_16h21.48.883,ps,2023.2.3,29.899969655615923,2024-06-03 16h23.10.455792 -0400,
mini_blocks/2d_single_mini_block_1.xlsx,"*Break*
Entering the 2D SIMULTANEOUS block
Rotation is Counter/Clockwise
Press <4> to continue",0,1,0,2D,None,180,True,False,None,obj1,180,0,output_pairs/2D_180m/2D_180m_obj_11_180_to_0deg.png,None,1371,period,0,2,2,2,0,4,4,4,,,,,,,,,,,,,454.5183698000037,,,,,,,,,,,,,,,,,,,,,,,,,,,,,,,,,,,,,,,,,,,,,,,,,,,458.37347859999863,458.40558909997344,458.40558909997344,460.3765422999859,3.0,['slash'],460.37669040000765,460.4102958999574,462.40611250000075,460.4102958999574,460.4102958999574,[1.8269671999732964],[None],,,,,,,,,,,454.47332719998667,454.5183698000037,455.4725957000046,455.4725957000046,455.5392564999638,,,458.3732286999584,period,1,2.8802634000312537,None,,,,,,,,,,,,,,,,,,,,,,,,,,,,,,,,,,,,,,,,,,,,,,,,,,,,,,,,,,,,,,009,001,2024-06-03_16h21.48.883,ps,2023.2.3,29.899969655615923,2024-06-03 16h23.10.455792 -0400,
mini_blocks/2d_single_mini_block_1.xlsx,"*Break*
Entering the 2D SIMULTANEOUS block
Rotation is Counter/Clockwise
Press <4> to continue",0,1,0,2D,None,180,False,False,None,sm5,180,0,output_pairs/2D_180/2D_180_SM5_180_to_0deg.png,None,1080,comma,0,2,2,2,0,5,5,5,,,,,,,,,,,,,462.45137639995664,,,,,,,,,,,,,,,,,,,,,,,,,,,,,,,,,,,,,,,,,,,,,,,,,,,471.07350890000816,471.1058189999894,471.1058189999894,473.07882259995677,2.0,['period'],473.07897189998766,473.1102463999996,475.10608749999665,,,[1.2699409000342712],[None],,,,,,,,,,,462.4063501000055,462.45137639995664,463.383081100008,463.383081100008,463.482931800012,,,471.07329649996245,period,0,7.680863499990664,None,,,,,,,,,,,,,,,,,,,,,,,,,,,,,,,,,,,,,,,,,,,,,,,,,,,,,,,,,,,,,,009,001,2024-06-03_16h21.48.883,ps,2023.2.3,29.899969655615923,2024-06-03 16h23.10.455792 -0400,
mini_blocks/2d_single_mini_block_1.xlsx,"*Break*
Entering the 2D SIMULTANEOUS block
Rotation is Counter/Clockwise
Press <4> to continue",0,1,0,2D,None,0,True,False,None,sm2,120,None,output_pairs/2D_0m/2D_0m_SM2_120deg.png,None,1144,period,0,2,2,2,0,6,6,6,,,,,,,,,,,,,475.14355619996786,,,,,,,,,,,,,,,,,,,,,,,,,,,,,,,,,,,,,,,,,,,,,,,,,,,478.8074333000113,478.83935689995997,478.83935689995997,480.81222279998474,4.0,['rshift'],480.81238399998983,480.8497065999545,482.8394103999599,,,[1.073868500010576],[None],,,,,,,,,,,475.1063475999981,475.14355619996786,476.083106999984,476.083106999984,476.1494338999619,,,478.8071888000122,period,1,2.694147799978964,None,,,,,,,,,,,,,,,,,,,,,,,,,,,,,,,,,,,,,,,,,,,,,,,,,,,,,,,,,,,,,,009,001,2024-06-03_16h21.48.883,ps,2023.2.3,29.899969655615923,2024-06-03 16h23.10.455792 -0400,
mini_blocks/2d_single_mini_block_1.xlsx,"*Break*
Entering the 2D SIMULTANEOUS block
Rotation is Counter/Clockwise
Press <4> to continue",0,1,0,2D,None,0,True,False,None,obj6,260,None,output_pairs/2D_0m/2D_0m_obj_6_260deg.png,None,1133,period,0,2,2,2,0,7,7,7,,,,,,,,,,,,,482.8853442000109,,,,,,,,,,,,,,,,,,,,,,,,,,,,,,,,,,,,,,,,,,,,,,,,,,,485.3773913999903,485.4060499999905,485.4060499999905,487.37639079999644,4.0,['rshift'],487.3765383999562,487.40571019996423,489.38332799996715,487.40571019996423,487.40571019996423,[0.9861555999959819],[None],,,,,,,,,,,482.8397502999869,482.8853442000109,483.8392892999691,483.8392892999691,483.9063001999748,,,485.37718429998495,period,1,1.5050717000267468,None,,,,,,,,,,,,,,,,,,,,,,,,,,,,,,,,,,,,,,,,,,,,,,,,,,,,,,,,,,,,,,009,001,2024-06-03_16h21.48.883,ps,2023.2.3,29.899969655615923,2024-06-03 16h23.10.455792 -0400,
mini_blocks/2d_single_mini_block_1.xlsx,"*Break*
Entering the 2D SIMULTANEOUS block
Rotation is Counter/Clockwise
Press <4> to continue",0,1,0,2D,None,120,False,False,None,obj3,60,180,output_pairs/2D_120/2D_120_obj_3_60_to_180deg.png,None,1104,comma,0,2,2,2,0,8,8,8,,,,,,,,,,,,,489.4326019999571,,,,,,,,,,,,,,,,,,,,,,,,,,,,,,,,,,,,,,,,,,,,,,,,,,,493.3402527999715,493.37239239999326,493.37239239999326,495.345690999995,4.0,['rshift'],495.345874199993,495.372641999973,497.35008449997986,,,[0.9718522000475787],[None],,,,,,,,,,,489.38358309998875,489.4326019999571,490.4059881999856,490.4059881999856,490.4394016999868,,,493.34002090001013,comma,1,2.9232144999550655,None,,,,,,,,,,,,,,,,,,,,,,,,,,,,,,,,,,,,,,,,,,,,,,,,,,,,,,,,,,,,,,009,001,2024-06-03_16h21.48.883,ps,2023.2.3,29.899969655615923,2024-06-03 16h23.10.455792 -0400,
mini_blocks/2d_single_mini_block_1.xlsx,"*Break*
Entering the 2D SIMULTANEOUS block
Rotation is Counter/Clockwise
Press <4> to continue",0,1,0,2D,None,180,True,False,None,sm4,0,180,output_pairs/2D_180m/2D_180m_SM4_0_to_180deg.png,None,1360,period,0,2,2,2,0,9,9,9,,,,,,,,,,,,,497.4017792000086,,,,,,,,,,,,,,,,,,,,,,,,,,,,,,,,,,,,,,,,,,,,,,,,,,,502.9411753999884,502.976732799958,502.976732799958,504.945455899986,4.0,['rshift'],504.9456330999965,504.9770811999915,506.9728036999586,,,[1.0794738999684341],[None],,,,,,,,,,,497.35026049998123,497.4017792000086,498.3394225999946,498.3394225999946,498.4099685999681,,,502.9409593999735,comma,0,4.596886800020002,None,,,,,,,,,,,,,,,,,,,,,,,,,,,,,,,,,,,,,,,,,,,,,,,,,,,,,,,,,,,,,,009,001,2024-06-03_16h21.48.883,ps,2023.2.3,29.899969655615923,2024-06-03 16h23.10.455792 -0400,
mini_blocks/2d_single_mini_block_1.xlsx,"*Break*
Entering the 2D SIMULTANEOUS block
Rotation is Counter/Clockwise
Press <4> to continue",0,1,0,2D,None,60,True,False,None,obj2,140,200,output_pairs/2D_60m/2D_60m_obj_2_140_to_200deg.png,None,558,period,0,2,2,2,0,10,10,10,,,,,,,,,,,,,507.0185378000024,,,,,,,,,,,,,,,,,,,,,,,,,,,,,,,,,,,,,,,,,,,,,,,,,,,509.5067390999757,509.53916719998233,509.53916719998233,511.5103083999711,None,['rshift'],511.5104519999586,511.54369439999573,513.5164054000052,511.54369439999573,511.54369439999573,[1.1338981000008062],[None],,,,,,,,,,,506.9730295999907,507.0185378000024,507.9499901999952,507.9499901999952,508.05000599997584,,,509.50652210001135,period,1,1.5380556000163779,None,,,,,,,,,,,,,,,,,,,,,,,,,,,,,,,,,,,,,,,,,,,,,,,,,,,,,,,,,,,,,,009,001,2024-06-03_16h21.48.883,ps,2023.2.3,29.899969655615923,2024-06-03 16h23.10.455792 -0400,
mini_blocks/2d_single_mini_block_1.xlsx,"*Break*
Entering the 2D SIMULTANEOUS block
Rotation is Counter/Clockwise
Press <4> to continue",0,1,0,2D,None,0,False,False,None,obj1,60,None,output_pairs/2D_0/2D_0_obj_15_60deg.png,None,1995,comma,0,2,2,2,0,11,11,11,,,,,,,,,,,,,513.564990599989,,,,,,,,,,,,,,,,,,,,,,,,,,,,,,,,,,,,,,,,,,,,,,,,,,,516.2732026999583,516.3056792999851,516.3056792999851,518.2765818999615,4.0,['rshift'],518.276738799992,518.305956199998,520.2831347999745,518.305956199998,518.305956199998,[0.9661128000007011],[None],,,,,,,,,,,513.5165892000077,513.564990599989,514.5061464000028,514.5061464000028,514.5728290000116,,,516.2729581999592,comma,1,1.7583114000153728,None,,,,,,,,,,,,,,,,,,,,,,,,,,,,,,,,,,,,,,,,,,,,,,,,,,,,,,,,,,,,,,009,001,2024-06-03_16h21.48.883,ps,2023.2.3,29.899969655615923,2024-06-03 16h23.10.455792 -0400,
mini_blocks/2d_single_mini_block_1.xlsx,"*Break*
Entering the 2D SIMULTANEOUS block
Rotation is Counter/Clockwise
Press <4> to continue",0,1,0,2D,None,120,True,False,None,obj1,200,320,output_pairs/2D_120m/2D_120m_obj_13_200_to_320deg.png,None,1383,period,0,2,2,2,0,12,12,12,,,,,,,,,,,,,520.3235003000009,,,,,,,,,,,,,,,,,,,,,,,,,,,,,,,,,,,,,,,,,,,,,,,,,,,523.4402904000017,523.4723790999851,523.4723790999851,525.4457219999749,4.0,['rshift'],525.445881099964,525.4771673000068,527.4730545000057,,,[0.7444477999815717],[None],,,,,,,,,,,520.2833169999649,520.3235003000009,521.2728074999759,521.2728074999759,521.339688499982,,,523.4400784999598,period,1,2.1520932000130415,None,,,,,,,,,,,,,,,,,,,,,,,,,,,,,,,,,,,,,,,,,,,,,,,,,,,,,,,,,,,,,,009,001,2024-06-03_16h21.48.883,ps,2023.2.3,29.899969655615923,2024-06-03 16h23.10.455792 -0400,
mini_blocks/2d_single_mini_block_1.xlsx,"*Break*
Entering the 2D SIMULTANEOUS block
Rotation is Counter/Clockwise
Press <4> to continue",0,1,0,2D,None,60,True,False,None,obj2,340,40,output_pairs/2D_60m/2D_60m_obj_2_340_to_40deg.png,None,555,period,0,2,2,2,0,13,13,13,,,,,,,,,,,,,527.5185640999698,,,,,,,,,,,,,,,,,,,,,,,,,,,,,,,,,,,,,,,,,,,,,,,,,,,530.0737904999987,530.1058264999883,530.1058264999883,532.079062099976,4.0,['rshift'],532.0792135999654,532.1104706999613,534.1105320999632,,,[0.9018352000275627],[None],,,,,,,,,,,527.4733912000083,527.5185640999698,528.439585199987,528.439585199987,528.5395684000105,,,530.0735663999803,period,1,1.6090933000086807,None,,,,,,,,,,,,,,,,,,,,,,,,,,,,,,,,,,,,,,,,,,,,,,,,,,,,,,,,,,,,,,009,001,2024-06-03_16h21.48.883,ps,2023.2.3,29.899969655615923,2024-06-03 16h23.10.455792 -0400,
mini_blocks/2d_single_mini_block_1.xlsx,"*Break*
Entering the 2D SIMULTANEOUS block
Rotation is Counter/Clockwise
Press <4> to continue",0,1,0,2D,None,0,False,False,None,obj8,260,None,output_pairs/2D_0/2D_0_obj_8_260deg.png,None,2005,comma,0,2,2,2,0,14,14,14,,,,,,,,,,,,,534.1551709999912,,,,,,,,,,,,,,,,,,,,,,,,,,,,,,,,,,,,,,,,,,,,,,,,,,,536.0072310999967,536.0393847000087,536.0393847000087,538.0104057999561,4.0,"['comma', 'rshift']",538.0105597999645,538.0393848000094,540.0168837999809,538.0393848000094,538.0393848000094,"[0.2728773000417277, 1.3452734000165947]","[None, None]",,,,,,,,,,,534.1107177999802,534.1551709999912,535.0729209999554,535.0729209999554,535.172926899977,,,536.0070272999583,period,0,0.9198665000149049,None,,,,,,,,,,,,,,,,,,,,,,,,,,,,,,,,,,,,,,,,,,,,,,,,,,,,,,,,,,,,,,009,001,2024-06-03_16h21.48.883,ps,2023.2.3,29.899969655615923,2024-06-03 16h23.10.455792 -0400,
mini_blocks/2d_single_mini_block_1.xlsx,"*Break*
Entering the 2D SIMULTANEOUS block
Rotation is Counter/Clockwise
Press <4> to continue",0,1,0,2D,None,60,False,False,None,obj3,260,320,output_pairs/2D_60/2D_60_obj_3_260_to_320deg.png,None,952,comma,0,2,2,2,0,15,15,15,,,,,,,,,,,,,540.0672961999662,,,,,,,,,,,,,,,,,,,,,,,,,,,,,,,,,,,,,,,,,,,,,,,,,,,544.1070515000029,544.1391644999967,544.1391644999967,546.1124027000042,4.0,['rshift'],546.112552799983,546.1439736000029,548.1396161000011,,,[0.8776494000339881],[None],,,,,,,,,,,540.017065699969,540.0672961999662,541.0062366999919,541.0062366999919,541.0729257999919,,,544.1068371000001,comma,1,3.0912020999821834,None,,,,,,,,,,,,,,,,,,,,,,,,,,,,,,,,,,,,,,,,,,,,,,,,,,,,,,,,,,,,,,009,001,2024-06-03_16h21.48.883,ps,2023.2.3,29.899969655615923,2024-06-03 16h23.10.455792 -0400,
mini_blocks/2d_single_mini_block_1.xlsx,"*Break*
Entering the 2D SIMULTANEOUS block
Rotation is Counter/Clockwise
Press <4> to continue",0,1,0,,,,,,,,,,,,,,0,2,2,2,,,,,,,,,,,,,,,,,,,,,,,,,,,,,,,,,,,,,,,,,,,,,,,,,,,,,,,,,,,,,,,,,,,,,,,,,,,,,,,,,,548.1459739999846,548.1729576999787,548.1729576999787,556.1415380999679,3.0,['slash'],556.1416911999695,556.1417165999883,None,,,,,,,,,,,,,[3.0919391000061296],[None],,,,,,,,,,,,,,,,,,,,,,,,,,,,,,,,,,,,,,,,,,,,,,,,,,,,,,,,,,,,009,001,2024-06-03_16h21.48.883,ps,2023.2.3,29.899969655615923,2024-06-03 16h23.10.455792 -0400,
mini_blocks/3dp_wm_mini_block_0.xlsx,"*Break*
Entering the 3D WORKING MEMORY block
Rotation is Counter/Clockwise
Press <4> to continue",1,0,1,3D,p,0,False,True,4,obj1,120,120,output_pairs/3Dp_0_WM/3Dp_0_WM_04_1_obj_15_120deg.png,output_pairs/3Dp_0_WM/3Dp_0_WM_04_2_obj_15_120deg.png,108,comma,0,3,3,3,,,,,0,0,0,0,,,,,,,,,557.7973220999702,,,,,,,,,,,,,,,,,,,,,,,,,,,,,,556.1418427999597,556.1726095000049,556.1726095000049,557.7400071999873,rshift,1.5565926000126638,None,557.752357899968,557.7973220999702,558.7440423999797,558.8064231000026,562.7396112999995,562.7728093999904,563.7440616000094,563.7440616000094,563.7440616000094,564.7445874999976,comma,1,0.993510200001765,None,564.7449085999979,564.7773763999576,564.7773763999576,566.7743756999844,4.0,['rshift'],566.7746195999789,566.8059468999854,568.7775733000017,,,[1.030624600010924],[None],,,,,,,,,,,,,,,,,,,,,,,,,,,,,,,,,,,,,,,,,,,,,,,,,,,,,,,,,,,,,,,,,,,,,,,,,,,,,,,,,,,,009,001,2024-06-03_16h21.48.883,ps,2023.2.3,29.899969655615923,2024-06-03 16h23.10.455792 -0400,
mini_blocks/3dp_wm_mini_block_0.xlsx,"*Break*
Entering the 3D WORKING MEMORY block
Rotation is Counter/Clockwise
Press <4> to continue",1,0,1,3D,p,180,True,True,10,sm1,180,0,output_pairs/3Dp_180_M_WM/3Dp_180_M_WM_10_1_sm_1_180deg.png,output_pairs/3Dp_180_M_WM/3Dp_180_M_WM_10_2_sm_1_0deg.png,37,period,0,3,3,3,,,,,0,1,1,1,,,,,,,,,568.8321996000013,,,,,,,,,,,,,,,,,,,,,,,,,,,,,,,,,,,,,568.7777621999849,568.8321996000013,569.7498982999823,569.8498428000021,573.7439843000029,573.7773833000101,574.7497739999671,574.7497739999671,574.7497739999671,577.7114188999985,period,1,2.954934699984733,None,577.7116062999703,577.7397362999618,577.7397362999618,579.7100159999682,None,None,579.7101664000074,579.7394906999543,581.7113099999842,579.7394906999543,579.7394906999543,,,581.7700850999681,,,,,,,,,,,,,,,,,,,,,,,,,,,,,,,,,,,,,,,,,,,,,,,,,,,,,,,,,,,,,,,,,,,,,,,,,,,,,,,,,,,009,001,2024-06-03_16h21.48.883,ps,2023.2.3,29.899969655615923,2024-06-03 16h23.10.455792 -0400,
mini_blocks/3dp_wm_mini_block_0.xlsx,"*Break*
Entering the 3D WORKING MEMORY block
Rotation is Counter/Clockwise
Press <4> to continue",1,0,1,3D,p,0,True,True,26,obj7,340,340,output_pairs/3Dp_0_M_WM/3Dp_0_M_WM_26_1_obj_7_340deg.png,output_pairs/3Dp_0_M_WM/3Dp_0_M_WM_26_2_obj_7_340deg.png,542,period,0,3,3,3,,,,,0,2,2,2,,,,,,,,,581.7700850999681,,,,,,,,,,,,,,,,,,,,,,,,,,,,,,,,,,,,,581.7115163999842,581.7700850999681,582.7167348999646,582.7833735999884,586.7440804999787,586.7440804999787,587.7731759999879,587.7064980999567,587.7064980999567,590.6070527999545,period,1,2.871115199988708,None,590.6072766999714,590.6393724000081,590.6393724000081,592.6127034999663,3.0,['slash'],592.6128629999585,592.6441082999809,594.6398981999955,,,[1.6969061000272632],[None],,,,,,,,,,,,,,,,,,,,,,,,,,,,,,,,,,,,,,,,,,,,,,,,,,,,,,,,,,,,,,,,,,,,,,,,,,,,,,,,,,,,009,001,2024-06-03_16h21.48.883,ps,2023.2.3,29.899969655615923,2024-06-03 16h23.10.455792 -0400,
mini_blocks/3dp_wm_mini_block_0.xlsx,"*Break*
Entering the 3D WORKING MEMORY block
Rotation is Counter/Clockwise
Press <4> to continue",1,0,1,3D,p,60,True,True,21,sm2,100,40,output_pairs/3Dp_60_M_WM/3Dp_60_M_WM_21_1_sm_2_100deg.png,output_pairs/3Dp_60_M_WM/3Dp_60_M_WM_21_2_sm_2_40deg.png,293,period,0,3,3,3,,,,,0,3,3,3,,,,,,,,,594.6936195999733,,,,,,,,,,,,,,,,,,,,,,,,,,,,,,,,,,,,,594.6401825000066,594.6936195999733,595.6064935000031,595.7064888000023,599.6065530999913,599.6065530999913,600.6108405999839,600.6108405999839,600.6108405999839,604.4407534999773,comma,0,3.796968200011179,None,604.4409491000115,604.477501699992,604.477501699992,606.4746676000068,None,['slash'],606.4748258999898,606.5060625000042,608.4443451999687,,,[1.962529300013557],[None],,,,,,,,,,,,,,,,,,,,,,,,,,,,,,,,,,,,,,,,,,,,,,,,,,,,,,,,,,,,,,,,,,,,,,,,,,,,,,,,,,,,009,001,2024-06-03_16h21.48.883,ps,2023.2.3,29.899969655615923,2024-06-03 16h23.10.455792 -0400,
mini_blocks/3dp_wm_mini_block_0.xlsx,"*Break*
Entering the 3D WORKING MEMORY block
Rotation is Counter/Clockwise
Press <4> to continue",1,0,1,3D,p,180,False,True,32,sm5,40,220,output_pairs/3Dp_180_WM/3Dp_60_WM_32_1_sm_5_40deg.png,output_pairs/3Dp_180_WM/3Dp_60_WM_32_2_sm_5_220deg.png,494,comma,0,3,3,3,,,,,0,4,4,4,,,,,,,,,608.4980765999644,,,,,,,,,,,,,,,,,,,,,,,,,,,,,,,,,,,,,608.4445229999837,608.4980765999644,609.4504014999839,609.5167575000087,613.4775134999654,613.4775134999654,614.4775718000019,614.4442400999833,614.4442400999833,618.0073269999702,comma,1,3.5573678000364453,None,618.0075395999593,618.0441960999742,618.0441960999742,620.0415147999884,2.0,"['comma', 'period']",620.0416727999691,620.0728571999935,622.0399520999636,,,"[1.2845740000484511, 1.8759252000018023]","[None, None]",,,,,,,,,,,,,,,,,,,,,,,,,,,,,,,,,,,,,,,,,,,,,,,,,,,,,,,,,,,,,,,,,,,,,,,,,,,,,,,,,,,,009,001,2024-06-03_16h21.48.883,ps,2023.2.3,29.899969655615923,2024-06-03 16h23.10.455792 -0400,
mini_blocks/3dp_wm_mini_block_0.xlsx,"*Break*
Entering the 3D WORKING MEMORY block
Rotation is Counter/Clockwise
Press <4> to continue",1,0,1,3D,p,180,False,True,15,sm1,200,20,output_pairs/3Dp_180_WM/3Dp_60_WM_15_1_sm_1_200deg.png,output_pairs/3Dp_180_WM/3Dp_60_WM_15_2_sm_1_20deg.png,481,comma,0,3,3,3,,,,,0,5,5,5,,,,,,,,,622.0924594000098,,,,,,,,,,,,,,,,,,,,,,,,,,,,,,,,,,,,,622.040228799975,622.0924594000098,623.0110915999976,623.1110604999703,627.0108730999636,627.0108730999636,628.0443232000107,628.0110394000076,628.0110394000076,631.9782461999566,period,0,3.950589600019157,None,631.9784405999817,632.0109136999818,632.0109136999818,634.008193799993,3.0,['slash'],634.008348000003,634.039620399999,636.0111179999658,,,[1.1650417000055313],[None],,,,,,,,,,,,,,,,,,,,,,,,,,,,,,,,,,,,,,,,,,,,,,,,,,,,,,,,,,,,,,,,,,,,,,,,,,,,,,,,,,,,009,001,2024-06-03_16h21.48.883,ps,2023.2.3,29.899969655615923,2024-06-03 16h23.10.455792 -0400,
mini_blocks/3dp_wm_mini_block_0.xlsx,"*Break*
Entering the 3D WORKING MEMORY block
Rotation is Counter/Clockwise
Press <4> to continue",1,0,1,3D,p,120,True,True,26,obj1,0,240,output_pairs/3Dp_120_M_WM/3Dp_120_M_WM_26_1_obj_12_0deg.png,output_pairs/3Dp_120_M_WM/3Dp_120_M_WM_26_2_obj_12_240deg.png,640,period,0,3,3,3,,,,,0,6,6,6,,,,,,,,,636.057628199982,,,,,,,,,,,,,,,,,,,,,,,,,,,,,,,,,,,,,636.0113993999548,636.057628199982,636.9838314999943,637.0835908000008,640.9733183999779,641.0109863000107,641.9733604000066,642.0065971000004,642.0065971000004,647.740842500003,period,1,5.71380450000288,None,647.7410375999752,647.777602599992,647.777602599992,649.7750147999614,None,None,649.7751084999763,649.8062364999787,651.7445435999543,,,,,,,,,,,,,,,,,,,,,,,,,,,,,,,,,,,,,,,,,,,,,,,,,,,,,,,,,,,,,,,,,,,,,,,,,,,,,,,,,,,,,,,,009,001,2024-06-03_16h21.48.883,ps,2023.2.3,29.899969655615923,2024-06-03 16h23.10.455792 -0400,
mini_blocks/3dp_wm_mini_block_0.xlsx,"*Break*
Entering the 3D WORKING MEMORY block
Rotation is Counter/Clockwise
Press <4> to continue",1,0,1,3D,p,0,True,True,9,obj1,200,200,output_pairs/3Dp_0_M_WM/3Dp_0_M_WM_09_1_obj_12_200deg.png,output_pairs/3Dp_0_M_WM/3Dp_0_M_WM_09_2_obj_12_200deg.png,538,period,0,3,3,3,,,,,0,7,7,7,,,,,,,,,651.7970672000083,,,,,,,,,,,,,,,,,,,,,,,,,,,,,,,,,,,,,651.7448221999803,651.7970672000083,652.7445382999722,652.8112372999894,656.7443453999585,656.7443453999585,657.7444341999944,657.7444341999944,657.7444341999944,664.0742420000024,period,1,6.312471900018863,None,664.0744517999701,664.1065736999735,664.1065736999735,666.0795874999603,2.0,['period'],666.0797423999757,666.1066714999615,668.073925899982,,,[1.5738731999881566],[None],668.1260685999878,,,,,,,,,,,,,,,,,,,,,,,,,,,,,,,,,,,,,,,,,,,,,,,,,,,,,,,,,,,,,,,,,,,,,,,,,,,,,,,,,,,009,001,2024-06-03_16h21.48.883,ps,2023.2.3,29.899969655615923,2024-06-03 16h23.10.455792 -0400,
mini_blocks/3dp_wm_mini_block_0.xlsx,"*Break*
Entering the 3D WORKING MEMORY block
Rotation is Counter/Clockwise
Press <4> to continue",1,0,1,3D,p,60,False,True,9,sm5,240,300,output_pairs/3Dp_60_WM/3Dp_60_WM_09_1_sm_5_240deg.png,output_pairs/3Dp_60_WM/3Dp_60_WM_09_2_sm_5_300deg.png,396,comma,0,3,3,3,,,,,0,8,8,8,,,,,,,,,668.1260685999878,,,,,,,,,,,,,,,,,,,,,,,,,,,,,,,,,,,,,668.074106999964,668.1260685999878,669.0734915999928,669.140202199982,673.0776920999633,673.0776920999633,674.1111537999823,674.0778898999561,674.0778898999561,675.3742187999887,comma,1,1.274873899994418,None,675.3744251999888,675.4063707999885,675.4063707999885,677.3771761999815,4.0,['rshift'],677.3773278999724,677.4066232999903,679.3779954999918,677.4066232999903,677.4066232999903,[1.099671899981331],[None],,,,,,,,,,,,,,,,,,,,,,,,,,,,,,,,,,,,,,,,,,,,,,,,,,,,,,,,,,,,,,,,,,,,,,,,,,,,,,,,,,,,009,001,2024-06-03_16h21.48.883,ps,2023.2.3,29.899969655615923,2024-06-03 16h23.10.455792 -0400,
mini_blocks/3dp_wm_mini_block_0.xlsx,"*Break*
Entering the 3D WORKING MEMORY block
Rotation is Counter/Clockwise
Press <4> to continue",1,0,1,3D,p,60,True,True,1,obj1,0,60,output_pairs/3Dp_60_M_WM/3Dp_60_M_WM_01_1_obj_11_0deg.png,output_pairs/3Dp_60_M_WM/3Dp_60_M_WM_01_2_obj_11_60deg.png,309,period,0,3,3,3,,,,,0,9,9,9,,,,,,,,,679.4365299000056,,,,,,,,,,,,,,,,,,,,,,,,,,,,,,,,,,,,,679.3781882000039,679.4365299000056,680.3735679999809,680.4401835000026,684.406551699969,684.373314699973,685.4111836999655,685.3778740999987,685.3778740999987,689.1742707999656,comma,0,3.783441700041294,None,689.1746232999722,689.2065989999683,689.2065989999683,691.1775620999979,2.0,['period'],691.1777100999607,691.2111987000098,693.2071598999901,691.2111987000098,691.2111987000098,[1.546514699992258],[None],,,,,,,,,,,,,,,,,,,,,,,,,,,,,,,,,,,,,,,,,,,,,,,,,,,,,,,,,,,,,,,,,,,,,,,,,,,,,,,,,,,,009,001,2024-06-03_16h21.48.883,ps,2023.2.3,29.899969655615923,2024-06-03 16h23.10.455792 -0400,
mini_blocks/3dp_wm_mini_block_0.xlsx,"*Break*
Entering the 3D WORKING MEMORY block
Rotation is Counter/Clockwise
Press <4> to continue",1,0,1,3D,p,120,False,True,14,obj5,300,60,output_pairs/3Dp_120_WM/3Dp_120_WM_14_1_obj_5_300deg.png,output_pairs/3Dp_120_WM/3Dp_120_WM_14_2_obj_5_60deg.png,344,comma,0,3,3,3,,,,,0,10,10,10,,,,,,,,,693.2519240999827,,,,,,,,,,,,,,,,,,,,,,,,,,,,,,,,,,,,,693.2075091999723,693.2519240999827,694.1837538999971,694.2837764999713,698.1839525999967,698.1839525999967,699.2069192999625,699.1735658000107,699.1735658000107,704.9787034000037,period,0,5.802652000042144,None,704.9789731999626,705.011251399992,705.011251399992,707.008666299982,2.0,['period'],707.0088214999996,707.0399813000113,709.0114756000112,,,[1.1013857999932952],[None],,,,,,,,,,,,,,,,,,,,,,,,,,,,,,,,,,,,,,,,,,,,,,,,,,,,,,,,,,,,,,,,,,,,,,,,,,,,,,,,,,,,009,001,2024-06-03_16h21.48.883,ps,2023.2.3,29.899969655615923,2024-06-03 16h23.10.455792 -0400,
mini_blocks/3dp_wm_mini_block_0.xlsx,"*Break*
Entering the 3D WORKING MEMORY block
Rotation is Counter/Clockwise
Press <4> to continue",1,0,1,3D,p,0,False,True,16,obj1,40,40,output_pairs/3Dp_0_WM/3Dp_0_WM_16_1_obj_1_40deg.png,output_pairs/3Dp_0_WM/3Dp_0_WM_16_2_obj_1_40deg.png,127,comma,0,3,3,3,,,,,0,11,11,11,,,,,,,,,709.0587184999604,,,,,,,,,,,,,,,,,,,,,,,,,,,,,,,,,,,,,709.011655099981,709.0587184999604,709.9838596999762,710.073719499982,714.0112810999854,714.0112810999854,715.040432699956,715.0069770999835,715.0069770999835,716.1411710999673,comma,1,1.1130448000039905,None,716.141398000007,716.1778574999771,716.1778574999771,718.1756371000083,4.0,['rshift'],718.1758534999681,718.2066067999694,720.1448089999612,,,[1.0222812999854796],[None],,,,,,,,,,,,,,,,,,,,,,,,,,,,,,,,,,,,,,,,,,,,,,,,,,,,,,,,,,,,,,,,,,,,,,,,,,,,,,,,,,,,009,001,2024-06-03_16h21.48.883,ps,2023.2.3,29.899969655615923,2024-06-03 16h23.10.455792 -0400,
mini_blocks/3dp_wm_mini_block_0.xlsx,"*Break*
Entering the 3D WORKING MEMORY block
Rotation is Counter/Clockwise
Press <4> to continue",1,0,1,3D,p,120,True,True,24,obj1,280,160,output_pairs/3Dp_120_M_WM/3Dp_120_M_WM_24_1_obj_14_280deg.png,output_pairs/3Dp_120_M_WM/3Dp_120_M_WM_24_2_obj_14_160deg.png,654,period,0,3,3,3,,,,,0,12,12,12,,,,,,,,,720.1982994999853,,,,,,,,,,,,,,,,,,,,,,,,,,,,,,,,,,,,,720.1450041999924,720.1982994999853,721.1448296000017,721.2115412999992,725.1446906999918,725.1446906999918,726.1505911999848,726.1505911999848,726.1505911999848,733.5743445999688,period,1,7.41077239997685,None,733.5745526999817,733.6067408999661,733.6067408999661,735.5798396999598,4.0,['rshift'],735.5800365000032,735.6113302999875,737.6071905999561,,,[1.0177560999873094],[None],,,,,,,,,,,,,,,,,,,,,,,,,,,,,,,,,,,,,,,,,,,,,,,,,,,,,,,,,,,,,,,,,,,,,,,,,,,,,,,,,,,,009,001,2024-06-03_16h21.48.883,ps,2023.2.3,29.899969655615923,2024-06-03 16h23.10.455792 -0400,
mini_blocks/3dp_wm_mini_block_0.xlsx,"*Break*
Entering the 3D WORKING MEMORY block
Rotation is Counter/Clockwise
Press <4> to continue",1,0,1,3D,p,120,False,True,2,sm3,100,220,output_pairs/3Dp_120_WM/3Dp_120_WM_02_1_sm_3_100deg.png,output_pairs/3Dp_120_WM/3Dp_120_WM_02_2_sm_3_220deg.png,328,comma,0,3,3,3,,,,,0,13,13,13,,,,,,,,,737.6604741999763,,,,,,,,,,,,,,,,,,,,,,,,,,,,,,,,,,,,,737.6074615999823,737.6604741999763,738.573986399977,738.6737543999916,742.578076899983,742.578076899983,743.578175099974,743.578175099974,743.578175099974,747.1079663999844,comma,1,3.526924100005999,None,747.1081689999555,747.1447620000108,747.1447620000108,749.1131221000105,3.0,['slash'],749.113274000003,749.1447921000072,751.1406261000084,,,[1.8241722999955527],[None],,,,,,,,,,,,,,,,,,,,,,,,,,,,,,,,,,,,,,,,,,,,,,,,,,,,,,,,,,,,,,,,,,,,,,,,,,,,,,,,,,,,009,001,2024-06-03_16h21.48.883,ps,2023.2.3,29.899969655615923,2024-06-03 16h23.10.455792 -0400,
mini_blocks/3dp_wm_mini_block_0.xlsx,"*Break*
Entering the 3D WORKING MEMORY block
Rotation is Counter/Clockwise
Press <4> to continue",1,0,1,3D,p,60,False,True,30,obj5,80,140,output_pairs/3Dp_60_WM/3Dp_60_WM_30_1_obj_5_80deg.png,output_pairs/3Dp_60_WM/3Dp_60_WM_30_2_obj_5_140deg.png,395,comma,0,3,3,3,,,,,0,14,14,14,,,,,,,,,751.1882960000075,,,,,,,,,,,,,,,,,,,,,,,,,,,,,,,,,,,,,751.1409559999593,751.1882960000075,752.1175041999668,752.2173960999935,756.1174413000117,756.1174413000117,757.1404739999562,757.1071564999875,757.1071564999875,763.678877600003,period,0,6.565460899961181,None,763.6790703999577,763.7072802999755,763.7072802999755,765.677490299975,2.0,['period'],765.6776426999713,765.7067363999668,767.6786917999852,765.7067363999668,765.7067363999668,[1.0938435000134632],[None],767.7330100999679,,,,,,,,,,,,,,,,,,,,,,,,,,,,,,,,,,,,,,,,,,,,,,,,,,,,,,,,,,,,,,,,,,,,,,,,,,,,,,,,,,,009,001,2024-06-03_16h21.48.883,ps,2023.2.3,29.899969655615923,2024-06-03 16h23.10.455792 -0400,
mini_blocks/3dp_wm_mini_block_0.xlsx,"*Break*
Entering the 3D WORKING MEMORY block
Rotation is Counter/Clockwise
Press <4> to continue",1,0,1,3D,p,180,True,True,7,obj1,0,180,output_pairs/3Dp_180_M_WM/3Dp_180_M_WM_07_1_obj_15_0deg.png,output_pairs/3Dp_180_M_WM/3Dp_180_M_WM_07_2_obj_15_180deg.png,55,period,0,3,3,3,,,,,0,15,15,15,,,,,,,,,767.7330100999679,,,,,,,,,,,,,,,,,,,,,,,,,,,,,,,,,,,,,767.6788634000113,767.7330100999679,768.6843594000093,768.7449639000115,772.7069162999978,772.7069162999978,773.7115899999626,773.678293999983,773.678293999983,776.2080499999574,comma,0,2.522808099980466,None,776.208255000005,776.2403143999982,776.2403143999982,778.2119673999841,3.0,['slash'],778.2121162000112,778.2403893999872,780.2175291999592,778.2403893999872,778.2403893999872,[1.625038800004404],[None],,,,,,,,,,,,,,,,,,,,,,,,,,,,,,,,,,,,,,,,,,,,,,,,,,,,,,,,,,,,,,,,,,,,,,,,,,,,,,,,,,,,009,001,2024-06-03_16h21.48.883,ps,2023.2.3,29.899969655615923,2024-06-03 16h23.10.455792 -0400,
mini_blocks/3dp_wm_mini_block_0.xlsx,"*Break*
Entering the 3D WORKING MEMORY block
Rotation is Counter/Clockwise
Press <4> to continue",1,0,1,,,,,,,,,,,,,,0,3,3,3,,,,,,,,,,,,,,,,,,,,,,,,,,,,,,,,,,,,,,,,,,,,,,,,,,,,,,,,,,,,,,,,,,,,,,,,,,,,,,,,,,780.2176037000027,780.2511371999863,780.2511371999863,788.2420272000018,3.0,['slash'],788.2421673999634,794.6184438999626,rshift,,,,,,,,,,,,,[3.861439000000246],[None],788.273702299979,788.273702299979,6.327404299983755,None,,,,,,,,,,,,,,,,,,,,,,,,,,,,,,,,,,,,,,,,,,,,,,,,,,,,,,,,009,001,2024-06-03_16h21.48.883,ps,2023.2.3,29.899969655615923,2024-06-03 16h23.10.455792 -0400,
mini_blocks/3dp_single_mini_block_2.xlsx,"*Break*
Entering the 3D SIMULTANEOUS block
Rotation is Counter/Clockwise
Press <4> to continue",0,1,0,3D,p,120,True,False,None,obj1,100,220,output_pairs/3Dp_120m/3Dp_120m_obj_1_100_to_220deg.png,None,2137,period,0,4,4,4,0,0,0,0,,,,,,,,,,,,,799.83838869998,,,,,,,,,,,,,,,,,,,,,,,,,,,,,,794.6187543999986,794.6512102999841,794.6512102999841,799.7788647999987,rshift,5.109267699997872,None,,,,,,,,,,,,,,,809.7745215999894,809.8069841999677,809.8069841999677,811.7778584999614,None,None,811.7779893999686,811.8117569999886,813.8075713999569,811.8117569999886,811.8117569999886,,,,,,,,,,,,,799.8016012999578,799.83838869998,800.778304699983,800.778304699983,800.844607899955,809.8069841999677,809.8069841999677,809.7742407000042,None,0,,,,,,,,,,,,,,,,,,,,,,,,,,,,,,,,,,,,,,,,,,,,,,,,,,,,,,,,,,,,,,,,009,001,2024-06-03_16h21.48.883,ps,2023.2.3,29.899969655615923,2024-06-03 16h23.10.455792 -0400,
mini_blocks/3dp_single_mini_block_2.xlsx,"*Break*
Entering the 3D SIMULTANEOUS block
Rotation is Counter/Clockwise
Press <4> to continue",0,1,0,3D,p,120,True,False,None,obj1,320,80,output_pairs/3Dp_120m/3Dp_120m_obj_13_320_to_80deg.png,None,2129,period,0,4,4,4,0,1,1,1,,,,,,,,,,,,,813.8522588000051,,,,,,,,,,,,,,,,,,,,,,,,,,,,,,,,,,,,,,,,,,,,,,,,,,,818.1080378000042,818.1404323999886,818.1404323999886,820.1112996999873,None,None,820.1113897999749,820.1450599000091,822.1180559999775,820.1450599000091,820.1450599000091,,,,,,,,,,,,,813.807857399981,813.8522588000051,814.7843416999676,814.7843416999676,814.8741546999663,,,818.1077684999909,period,1,3.312889399996493,None,,,,,,,,,,,,,,,,,,,,,,,,,,,,,,,,,,,,,,,,,,,,,,,,,,,,,,,,,,,,,,009,001,2024-06-03_16h21.48.883,ps,2023.2.3,29.899969655615923,2024-06-03 16h23.10.455792 -0400,
mini_blocks/3dp_single_mini_block_2.xlsx,"*Break*
Entering the 3D SIMULTANEOUS block
Rotation is Counter/Clockwise
Press <4> to continue",0,1,0,3D,p,0,False,False,None,obj1,280,None,output_pairs/3Dp_0/3Dp_0_obj_14_280deg.png,None,2145,comma,0,4,4,4,0,2,2,2,,,,,,,,,,,,,822.1666611999972,,,,,,,,,,,,,,,,,,,,,,,,,,,,,,,,,,,,,,,,,,,,,,,,,,,824.9415678000078,824.9737290999619,824.9737290999619,826.9447494999622,4.0,['rshift'],826.9449828999932,826.9739329000004,828.9513525000075,826.9739329000004,826.9739329000004,[0.9554308999795467],[None],,,,,,,,,,,822.1182357000071,822.1666611999972,823.1074795000022,823.1074795000022,823.1741062999936,,,824.9413607000024,comma,1,1.8218277999549173,None,,,,,,,,,,,,,,,,,,,,,,,,,,,,,,,,,,,,,,,,,,,,,,,,,,,,,,,,,,,,,,009,001,2024-06-03_16h21.48.883,ps,2023.2.3,29.899969655615923,2024-06-03 16h23.10.455792 -0400,
mini_blocks/3dp_single_mini_block_2.xlsx,"*Break*
Entering the 3D SIMULTANEOUS block
Rotation is Counter/Clockwise
Press <4> to continue",0,1,0,3D,p,0,False,False,None,obj1,180,None,output_pairs/3Dp_0/3Dp_0_obj_10_180deg.png,None,2149,comma,0,4,4,4,0,3,3,3,,,,,,,,,,,,,828.9998108999571,,,,,,,,,,,,,,,,,,,,,,,,,,,,,,,,,,,,,,,,,,,,,,,,,,,832.0416044999729,832.073823499959,832.073823499959,834.0470435000025,4.0,['rshift'],834.0471924999729,834.074206899968,836.0413407000015,,,[0.7582069000345655],[None],836.0861495999852,,,,,,,,,,828.9516591999563,828.9998108999571,829.9450518999947,829.9450518999947,830.011357099982,,,832.0413977999706,comma,1,2.079721799993422,None,,,,,,,,,,,,,,,,,,,,,,,,,,,,,,,,,,,,,,,,,,,,,,,,,,,,,,,,,,,,,,009,001,2024-06-03_16h21.48.883,ps,2023.2.3,29.899969655615923,2024-06-03 16h23.10.455792 -0400,
mini_blocks/3dp_single_mini_block_2.xlsx,"*Break*
Entering the 3D SIMULTANEOUS block
Rotation is Counter/Clockwise
Press <4> to continue",0,1,0,3D,p,0,False,False,None,obj9,260,None,output_pairs/3Dp_0/3Dp_0_obj_9_260deg.png,None,2150,comma,0,4,4,4,0,4,4,4,,,,,,,,,,,,,836.0861495999852,,,,,,,,,,,,,,,,,,,,,,,,,,,,,,,,,,,,,,,,,,,,,,,,,,,839.0752329999814,839.1072080999729,839.1072080999729,841.0802778999787,4.0,['rshift'],841.080426200002,841.1118690999574,843.0784829999902,,,[0.8141009999671951],[None],,,,,,,,,,,836.0415322000044,836.0861495999852,837.0408435999998,837.0408435999998,837.1074101999984,,,839.0750281999935,comma,1,2.0012526999926195,None,,,,,,,,,,,,,,,,,,,,,,,,,,,,,,,,,,,,,,,,,,,,,,,,,,,,,,,,,,,,,,009,001,2024-06-03_16h21.48.883,ps,2023.2.3,29.899969655615923,2024-06-03 16h23.10.455792 -0400,
mini_blocks/3dp_single_mini_block_2.xlsx,"*Break*
Entering the 3D SIMULTANEOUS block
Rotation is Counter/Clockwise
Press <4> to continue",0,1,0,3D,p,180,False,False,None,obj1,80,260,output_pairs/3Dp_180/3Dp_180_obj_12_80_to_260deg.png,None,764,comma,0,4,4,4,0,5,5,5,,,,,,,,,,,,,843.123279499996,,,,,,,,,,,,,,,,,,,,,,,,,,,,,,,,,,,,,,,,,,,,,,,,,,,853.0749793999712,853.107246199972,853.107246199972,855.0779017999885,3.0,['slash'],855.0780526999733,855.1073577000061,857.0745234999922,855.1073577000061,855.1073577000061,[0.973675400018692],[None],857.1174109999556,,,,,,,,,,843.0786743999925,843.123279499996,844.1075511999661,844.1075511999661,844.1408816999756,853.107246199972,853.107246199972,853.0747971999808,None,0,,,,,,,,,,,,,,,,,,,,,,,,,,,,,,,,,,,,,,,,,,,,,,,,,,,,,,,,,,,,,,,,009,001,2024-06-03_16h21.48.883,ps,2023.2.3,29.899969655615923,2024-06-03 16h23.10.455792 -0400,
mini_blocks/3dp_single_mini_block_2.xlsx,"*Break*
Entering the 3D SIMULTANEOUS block
Rotation is Counter/Clockwise
Press <4> to continue",0,1,0,3D,p,120,False,False,None,obj2,280,40,output_pairs/3Dp_120/3Dp_120_obj_2_280_to_40deg.png,None,729,comma,0,4,4,4,0,6,6,6,,,,,,,,,,,,,857.1174109999556,,,,,,,,,,,,,,,,,,,,,,,,,,,,,,,,,,,,,,,,,,,,,,,,,,,861.3085412000073,861.3404980999767,861.3404980999767,863.3137900999864,3.0,['slash'],863.3139429999865,863.3453123999643,865.3121468999889,,,[1.7486482000094838],[None],,,,,,,,,,,857.0747384999995,857.1174109999556,858.1074395999894,858.1074395999894,858.1406177000026,,,861.308265700005,period,0,3.1729486000258476,None,,,,,,,,,,,,,,,,,,,,,,,,,,,,,,,,,,,,,,,,,,,,,,,,,,,,,,,,,,,,,,009,001,2024-06-03_16h21.48.883,ps,2023.2.3,29.899969655615923,2024-06-03 16h23.10.455792 -0400,
mini_blocks/3dp_single_mini_block_2.xlsx,"*Break*
Entering the 3D SIMULTANEOUS block
Rotation is Counter/Clockwise
Press <4> to continue",0,1,0,3D,p,180,True,False,None,obj1,320,140,output_pairs/3Dp_180m/3Dp_180m_obj_10_320_to_140deg.png,None,2036,period,0,4,4,4,0,7,7,7,,,,,,,,,,,,,865.3634240999818,,,,,,,,,,,,,,,,,,,,,,,,,,,,,,,,,,,,,,,,,,,,,,,,,,,868.3751591999899,868.407326399989,868.407326399989,870.3780422999989,4.0,['rshift'],870.3781959000044,870.4074434000067,872.3788349999813,870.4074434000067,870.4074434000067,[1.7696374999941327],[None],,,,,,,,,,,865.3123309999937,865.3634240999818,866.307578100008,866.307578100008,866.37437949999,,,868.3749386999989,period,1,2.061595000035595,None,,,,,,,,,,,,,,,,,,,,,,,,,,,,,,,,,,,,,,,,,,,,,,,,,,,,,,,,,,,,,,009,001,2024-06-03_16h21.48.883,ps,2023.2.3,29.899969655615923,2024-06-03 16h23.10.455792 -0400,
mini_blocks/3dp_single_mini_block_2.xlsx,"*Break*
Entering the 3D SIMULTANEOUS block
Rotation is Counter/Clockwise
Press <4> to continue",0,1,0,3D,p,0,True,False,None,obj5,180,None,output_pairs/3Dp_0m/3Dp_0m_obj_5_180deg.png,None,1710,period,0,4,4,4,0,8,8,8,,,,,,,,,,,,,872.4242693999549,,,,,,,,,,,,,,,,,,,,,,,,,,,,,,,,,,,,,,,,,,,,,,,,,,,875.0420186999836,875.0744065999752,875.0744065999752,877.0446235999698,4.0,['rshift'],877.0447742000106,877.074040699983,879.0415715999552,877.074040699983,877.074040699983,[1.845566600037273],[None],879.0862230999628,,,,,,,,,,872.3790084999637,872.4242693999549,873.3846521999803,873.3846521999803,873.440986600006,,,875.0418030999717,period,1,1.6241586999967694,None,,,,,,,,,,,,,,,,,,,,,,,,,,,,,,,,,,,,,,,,,,,,,,,,,,,,,,,,,,,,,,009,001,2024-06-03_16h21.48.883,ps,2023.2.3,29.899969655615923,2024-06-03 16h23.10.455792 -0400,
mini_blocks/3dp_single_mini_block_2.xlsx,"*Break*
Entering the 3D SIMULTANEOUS block
Rotation is Counter/Clockwise
Press <4> to continue",0,1,0,3D,p,120,True,False,None,obj9,220,340,output_pairs/3Dp_120m/3Dp_120m_obj_9_220_to_340deg.png,None,2117,period,0,4,4,4,0,9,9,9,,,,,,,,,,,,,879.0862230999628,,,,,,,,,,,,,,,,,,,,,,,,,,,,,,,,,,,,,,,,,,,,,,,,,,,885.9185097999871,885.9506892999634,885.9506892999634,887.942616699962,4.0,['rshift'],887.9427866999758,887.9741463999962,889.9455193000031,,,[1.8183078999863937],[None],,,,,,,,,,,879.0417501999764,879.0862230999628,880.0455367999966,880.0455367999966,880.1117487999727,,,885.9183067000122,period,1,5.866537099995185,None,,,,,,,,,,,,,,,,,,,,,,,,,,,,,,,,,,,,,,,,,,,,,,,,,,,,,,,,,,,,,,009,001,2024-06-03_16h21.48.883,ps,2023.2.3,29.899969655615923,2024-06-03 16h23.10.455792 -0400,
mini_blocks/3dp_single_mini_block_2.xlsx,"*Break*
Entering the 3D SIMULTANEOUS block
Rotation is Counter/Clockwise
Press <4> to continue",0,1,0,3D,p,120,True,False,None,obj1,220,340,output_pairs/3Dp_120m/3Dp_120m_obj_11_220_to_340deg.png,None,2121,period,0,4,4,4,0,10,10,10,,,,,,,,,,,,,889.9916912000044,,,,,,,,,,,,,,,,,,,,,,,,,,,,,,,,,,,,,,,,,,,,,,,,,,,895.241839299968,895.2740673999651,895.2740673999651,897.247308799997,None,None,897.247396599967,897.2745450999937,899.2415576999774,,,,,899.2861682999646,,,,,,,,,,889.945710400003,889.9916912000044,890.9077786999987,890.9077786999987,891.0076529000071,,,895.2416323999641,period,1,4.309116599964909,None,,,,,,,,,,,,,,,,,,,,,,,,,,,,,,,,,,,,,,,,,,,,,,,,,,,,,,,,,,,,,,009,001,2024-06-03_16h21.48.883,ps,2023.2.3,29.899969655615923,2024-06-03 16h23.10.455792 -0400,
mini_blocks/3dp_single_mini_block_2.xlsx,"*Break*
Entering the 3D SIMULTANEOUS block
Rotation is Counter/Clockwise
Press <4> to continue",0,1,0,3D,p,120,False,False,None,obj8,300,60,output_pairs/3Dp_120/3Dp_120_obj_8_300_to_60deg.png,None,707,comma,0,4,4,4,0,11,11,11,,,,,,,,,,,,,899.2861682999646,,,,,,,,,,,,,,,,,,,,,,,,,,,,,,,,,,,,,,,,,,,,,,,,,,,907.5792287999648,907.6078656999744,907.6078656999744,909.5781262000091,4.0,['rshift'],909.5782769999932,909.6075086999917,911.5792778999894,909.6075086999917,909.6075086999917,[1.6490854999865405],[None],911.6244702999829,,,,,,,,,,899.2417321999674,899.2861682999646,900.2513505999814,900.2513505999814,900.3174178999616,,,907.5790361000109,comma,1,7.317785200022627,None,,,,,,,,,,,,,,,,,,,,,,,,,,,,,,,,,,,,,,,,,,,,,,,,,,,,,,,,,,,,,,009,001,2024-06-03_16h21.48.883,ps,2023.2.3,29.899969655615923,2024-06-03 16h23.10.455792 -0400,
mini_blocks/3dp_single_mini_block_2.xlsx,"*Break*
Entering the 3D SIMULTANEOUS block
Rotation is Counter/Clockwise
Press <4> to continue",0,1,0,3D,p,60,False,False,None,obj4,280,340,output_pairs/3Dp_60/3Dp_60_obj_4_280_to_340deg.png,None,1619,comma,0,4,4,4,0,12,12,12,,,,,,,,,,,,,911.6244702999829,,,,,,,,,,,,,,,,,,,,,,,,,,,,,,,,,,,,,,,,,,,,,,,,,,,915.5752723999904,915.6075031000073,915.6075031000073,917.5807227999903,4.0,['rshift'],917.5808866999578,917.6121636999887,919.6079511999851,,,[1.0726371000055224],[None],,,,,,,,,,,911.5794449999812,911.6244702999829,912.5789717999869,912.5789717999869,912.645201199979,,,915.575065699988,comma,1,2.974849999998696,None,,,,,,,,,,,,,,,,,,,,,,,,,,,,,,,,,,,,,,,,,,,,,,,,,,,,,,,,,,,,,,009,001,2024-06-03_16h21.48.883,ps,2023.2.3,29.899969655615923,2024-06-03 16h23.10.455792 -0400,
mini_blocks/3dp_single_mini_block_2.xlsx,"*Break*
Entering the 3D SIMULTANEOUS block
Rotation is Counter/Clockwise
Press <4> to continue",0,1,0,3D,p,60,False,False,None,obj4,280,340,output_pairs/3Dp_60/3Dp_60_obj_4_280_to_340deg.png,None,1619,comma,0,4,4,4,0,13,13,13,,,,,,,,,,,,,919.67458240001,,,,,,,,,,,,,,,,,,,,,,,,,,,,,,,,,,,,,,,,,,,,,,,,,,,924.4755460000015,924.5117431000108,924.5117431000108,926.486447400006,4.0,['rshift'],926.4865958999726,926.5076119999867,928.4750768999802,,,[1.329810900031589],[None],928.5206876999582,,,,,,,,,,919.6082672000048,919.67458240001,920.574563000002,920.574563000002,920.6745064999559,,,924.4753401000053,comma,1,3.898576800012961,None,,,,,,,,,,,,,,,,,,,,,,,,,,,,,,,,,,,,,,,,,,,,,,,,,,,,,,,,,,,,,,009,001,2024-06-03_16h21.48.883,ps,2023.2.3,29.899969655615923,2024-06-03 16h23.10.455792 -0400,
mini_blocks/3dp_single_mini_block_2.xlsx,"*Break*
Entering the 3D SIMULTANEOUS block
Rotation is Counter/Clockwise
Press <4> to continue",0,1,0,3D,p,180,False,False,None,obj7,140,320,output_pairs/3Dp_180/3Dp_180_obj_7_140_to_320deg.png,None,763,comma,0,4,4,4,0,14,14,14,,,,,,,,,,,,,928.5206876999582,,,,,,,,,,,,,,,,,,,,,,,,,,,,,,,,,,,,,,,,,,,,,,,,,,,934.9460108999629,934.9784317999729,934.9784317999729,936.9493106000009,4.0,['rshift'],936.9494687999832,936.9789167999988,938.9747777999728,936.9789167999988,936.9789167999988,[0.9421257999492809],[None],,,,,,,,,,,928.4752556000021,928.5206876999582,929.4790177000104,929.4790177000104,929.5452026999556,,,934.9458041999605,comma,1,5.4336304000462405,None,,,,,,,,,,,,,,,,,,,,,,,,,,,,,,,,,,,,,,,,,,,,,,,,,,,,,,,,,,,,,,009,001,2024-06-03_16h21.48.883,ps,2023.2.3,29.899969655615923,2024-06-03 16h23.10.455792 -0400,
mini_blocks/3dp_single_mini_block_2.xlsx,"*Break*
Entering the 3D SIMULTANEOUS block
Rotation is Counter/Clockwise
Press <4> to continue",0,1,0,3D,p,0,False,False,None,obj1,40,None,output_pairs/3Dp_0/3Dp_0_obj_13_40deg.png,None,2153,comma,0,4,4,4,0,15,15,15,,,,,,,,,,,,,939.0204890999594,,,,,,,,,,,,,,,,,,,,,,,,,,,,,,,,,,,,,,,,,,,,,,,,,,,941.8422243999667,941.874212900002,941.874212900002,943.8447029999807,4.0,['rshift'],943.8448630999774,943.8744389999774,945.8515696999966,943.8744389999774,943.8744389999774,[0.8951141000143252],[None],,,,,,,,,,,938.9750210999628,939.0204890999594,939.9787943999982,939.9787943999982,940.0413347999565,,,941.8420239000116,comma,1,1.854897000011988,None,,,,,,,,,,,,,,,,,,,,,,,,,,,,,,,,,,,,,,,,,,,,,,,,,,,,,,,,,,,,,,009,001,2024-06-03_16h21.48.883,ps,2023.2.3,29.899969655615923,2024-06-03 16h23.10.455792 -0400,
mini_blocks/3dp_single_mini_block_2.xlsx,"*Break*
Entering the 3D SIMULTANEOUS block
Rotation is Counter/Clockwise
Press <4> to continue",0,1,0,,,,,,,,,,,,,,0,4,4,4,,,,,,,,,,,,,,,,,,,,,,,,,,,,,,,,,,,,,,,,,,,,,,,,,,,,,,,,,,,,,,,,,,,,,,,,,,,,,,,,,,945.8642862999695,945.8884205999784,945.8884205999784,953.8763508999837,3.0,['slash'],953.876491300005,953.876516499964,None,,,,,,,,,,,,,[2.7535250000073574],[None],,,,,,,,,,,,,,,,,,,,,,,,,,,,,,,,,,,,,,,,,,,,,,,,,,,,,,,,,,,,009,001,2024-06-03_16h21.48.883,ps,2023.2.3,29.899969655615923,2024-06-03 16h23.10.455792 -0400,
mini_blocks/3dp_wm_mini_block_2.xlsx,"*Break*
Entering the 3D WORKING MEMORY block
Rotation is Counter/Clockwise
Press <4> to continue",1,0,0,3D,p,0,False,True,32,sm1,100,100,output_pairs/3Dp_0_WM/3Dp_0_WM_32_1_sm_1_100deg.png,output_pairs/3Dp_0_WM/3Dp_0_WM_32_2_sm_1_100deg.png,110,comma,0,5,5,5,,,,,0,0,0,0,,,,,,,,,958.7082749999827,,,,,,,,,,,,,,,,,,,,,,,,,,,,,,953.8766344999894,953.9076929999865,953.9076929999865,958.6421408999595,rshift,4.732815399998799,None,958.6547815999947,958.7082749999827,959.6747751999646,959.708046099986,963.645698599983,963.6790108999703,964.6458438999834,964.6458438999834,964.6458438999834,965.8751258999691,comma,1,1.2270831000059843,None,965.8754223999567,965.9076013999875,965.9076013999875,967.8787254999625,4.0,['rshift'],967.8789685000083,967.9078541999916,969.8793408999918,967.9078541999916,967.9078541999916,[1.1979179000481963],[None],,,,,,,,,,,,,,,,,,,,,,,,,,,,,,,,,,,,,,,,,,,,,,,,,,,,,,,,,,,,,,,,,,,,,,,,,,,,,,,,,,,,009,001,2024-06-03_16h21.48.883,ps,2023.2.3,29.899969655615923,2024-06-03 16h23.10.455792 -0400,
mini_blocks/3dp_wm_mini_block_2.xlsx,"*Break*
Entering the 3D WORKING MEMORY block
Rotation is Counter/Clockwise
Press <4> to continue",1,0,0,3D,p,180,True,True,28,sm3,320,140,output_pairs/3Dp_180_M_WM/3Dp_180_M_WM_28_1_sm_3_320deg.png,output_pairs/3Dp_180_M_WM/3Dp_180_M_WM_28_2_sm_3_140deg.png,49,period,0,5,5,5,,,,,0,1,1,1,,,,,,,,,969.9279810999869,,,,,,,,,,,,,,,,,,,,,,,,,,,,,,,,,,,,,969.8796433999669,969.9279810999869,970.8848221999942,970.9518865999999,974.8747580999625,974.9080998999998,975.8748021000065,975.8748021000065,975.8748021000065,979.7130224999855,comma,0,3.8062541999970563,None,979.7132160000037,979.7413980999845,979.7413980999845,981.7159800999798,4.0,['rshift'],981.7161247999757,981.741569100006,983.7086353999912,981.741569100006,981.741569100006,[0.9234513000119478],[None],983.7537770000054,,,,,,,,,,,,,,,,,,,,,,,,,,,,,,,,,,,,,,,,,,,,,,,,,,,,,,,,,,,,,,,,,,,,,,,,,,,,,,,,,,,009,001,2024-06-03_16h21.48.883,ps,2023.2.3,29.899969655615923,2024-06-03 16h23.10.455792 -0400,
mini_blocks/3dp_wm_mini_block_2.xlsx,"*Break*
Entering the 3D WORKING MEMORY block
Rotation is Counter/Clockwise
Press <4> to continue",1,0,0,3D,p,180,False,True,6,obj1,300,120,output_pairs/3Dp_180_WM/3Dp_60_WM_06_1_obj_10_300deg.png,output_pairs/3Dp_180_WM/3Dp_60_WM_06_2_obj_10_120deg.png,504,comma,0,5,5,5,,,,,0,2,2,2,,,,,,,,,983.7537770000054,,,,,,,,,,,,,,,,,,,,,,,,,,,,,,,,,,,,,983.708799999964,983.7537770000054,984.7081395999994,984.7747844000114,988.74127519998,988.7077728000004,989.7458681999706,989.7125313999713,989.7125313999713,992.0422565999907,comma,1,2.3283642000169493,None,992.0425292999716,992.0745371999801,992.0745371999801,994.0454888999811,4.0,['rshift'],994.0456373000052,994.0791198000079,996.0750419999822,994.0791198000079,994.0791198000079,[0.6625403999933042],[None],,,,,,,,,,,,,,,,,,,,,,,,,,,,,,,,,,,,,,,,,,,,,,,,,,,,,,,,,,,,,,,,,,,,,,,,,,,,,,,,,,,,009,001,2024-06-03_16h21.48.883,ps,2023.2.3,29.899969655615923,2024-06-03 16h23.10.455792 -0400,
mini_blocks/3dp_wm_mini_block_2.xlsx,"*Break*
Entering the 3D WORKING MEMORY block
Rotation is Counter/Clockwise
Press <4> to continue",1,0,0,3D,p,0,False,True,12,obj3,120,120,output_pairs/3Dp_0_WM/3Dp_0_WM_12_1_obj_3_120deg.png,output_pairs/3Dp_0_WM/3Dp_0_WM_12_2_obj_3_120deg.png,109,comma,0,5,5,5,,,,,0,3,3,3,,,,,,,,,996.1274058999843,,,,,,,,,,,,,,,,,,,,,,,,,,,,,,,,,,,,,996.0752556999796,996.1274058999843,997.0749015999609,997.1414368000114,1001.0458336999873,1001.074979899975,1002.0416867999593,1002.0416867999593,1002.0416867999593,1003.6752762999968,comma,1,1.5997543999692425,None,1003.675501199963,1003.7078857999877,1003.7078857999877,1005.6809850999853,4.0,['rshift'],1005.6811352999648,1005.7124841999612,1007.7082229999942,,,[0.6134315999806859],[None],,,,,,,,,,,,,,,,,,,,,,,,,,,,,,,,,,,,,,,,,,,,,,,,,,,,,,,,,,,,,,,,,,,,,,,,,,,,,,,,,,,,009,001,2024-06-03_16h21.48.883,ps,2023.2.3,29.899969655615923,2024-06-03 16h23.10.455792 -0400,
mini_blocks/3dp_wm_mini_block_2.xlsx,"*Break*
Entering the 3D WORKING MEMORY block
Rotation is Counter/Clockwise
Press <4> to continue",1,0,0,3D,p,180,False,True,3,obj3,340,160,output_pairs/3Dp_180_WM/3Dp_60_WM_03_1_obj_3_340deg.png,output_pairs/3Dp_180_WM/3Dp_60_WM_03_2_obj_3_160deg.png,503,comma,0,5,5,5,,,,,0,4,4,4,,,,,,,,,1007.7649598999997,,,,,,,,,,,,,,,,,,,,,,,,,,,,,,,,,,,,,1007.7084643999697,1007.7649598999997,1008.6748622999876,1008.7749081999646,1012.674904799962,1012.674904799962,1013.6792722999817,1013.6792722999817,1013.6792722999817,1018.3134744999697,period,0,4.601706199988257,None,1018.3136839999934,1018.3417095000041,1018.3417095000041,1020.3121095999959,3.0,['slash'],1020.3122644000105,1020.341202199983,1022.3085560000036,1020.341202199983,1020.341202199983,[1.2107118000276387],[None],1022.3615233000019,,,,,,,,,,,,,,,,,,,,,,,,,,,,,,,,,,,,,,,,,,,,,,,,,,,,,,,,,,,,,,,,,,,,,,,,,,,,,,,,,,,009,001,2024-06-03_16h21.48.883,ps,2023.2.3,29.899969655615923,2024-06-03 16h23.10.455792 -0400,
mini_blocks/3dp_wm_mini_block_2.xlsx,"*Break*
Entering the 3D WORKING MEMORY block
Rotation is Counter/Clockwise
Press <4> to continue",1,0,0,3D,p,0,True,True,29,sm4,120,120,output_pairs/3Dp_0_M_WM/3Dp_0_M_WM_29_1_sm_4_120deg.png,output_pairs/3Dp_0_M_WM/3Dp_0_M_WM_29_2_sm_4_120deg.png,512,period,0,5,5,5,,,,,0,5,5,5,,,,,,,,,1022.3615233000019,,,,,,,,,,,,,,,,,,,,,,,,,,,,,,,,,,,,,1022.308733999962,1022.3615233000019,1023.3461807999993,1023.3794617999811,1027.3414360999595,1027.3746630999958,1028.3460395999718,1028.312683199998,1028.312683199998,1032.1089299999876,period,1,3.784141300013289,None,1032.1091412999667,1032.1412914000102,1032.1412914000102,1034.1146474999841,3.0,['slash'],1034.1148057999671,1034.1460360999918,1036.1126155999955,,,[1.8910612000036053],[None],,,,,,,,,,,,,,,,,,,,,,,,,,,,,,,,,,,,,,,,,,,,,,,,,,,,,,,,,,,,,,,,,,,,,,,,,,,,,,,,,,,,009,001,2024-06-03_16h21.48.883,ps,2023.2.3,29.899969655615923,2024-06-03 16h23.10.455792 -0400,
mini_blocks/3dp_wm_mini_block_2.xlsx,"*Break*
Entering the 3D WORKING MEMORY block
Rotation is Counter/Clockwise
Press <4> to continue",1,0,0,3D,p,120,True,True,6,obj7,220,340,output_pairs/3Dp_120_M_WM/3Dp_120_M_WM_06_1_obj_7_220deg.png,output_pairs/3Dp_120_M_WM/3Dp_120_M_WM_06_2_obj_7_340deg.png,649,period,0,5,5,5,,,,,0,6,6,6,,,,,,,,,1036.166286199994,,,,,,,,,,,,,,,,,,,,,,,,,,,,,,,,,,,,,1036.1128709999612,1036.166286199994,1037.1084148999653,1037.1750441999757,1041.1125089999987,1041.1125089999987,1042.1461063000024,1042.108630999981,1042.108630999981,1045.54663170001,period,1,3.413232600025367,None,1045.5468468999607,1045.5793601999758,1045.5793601999758,1047.5766915999702,3.0,['slash'],1047.5768499000114,1047.6079615000053,1049.5750141000026,,,[1.358164300036151],[None],,,,,,,,,,,,,,,,,,,,,,,,,,,,,,,,,,,,,,,,,,,,,,,,,,,,,,,,,,,,,,,,,,,,,,,,,,,,,,,,,,,,009,001,2024-06-03_16h21.48.883,ps,2023.2.3,29.899969655615923,2024-06-03 16h23.10.455792 -0400,
mini_blocks/3dp_wm_mini_block_2.xlsx,"*Break*
Entering the 3D WORKING MEMORY block
Rotation is Counter/Clockwise
Press <4> to continue",1,0,0,3D,p,180,True,True,8,obj6,240,60,output_pairs/3Dp_180_M_WM/3Dp_180_M_WM_08_1_obj_6_240deg.png,output_pairs/3Dp_180_M_WM/3Dp_180_M_WM_08_2_obj_6_60deg.png,41,period,0,5,5,5,,,,,0,7,7,7,,,,,,,,,1049.6287332999636,,,,,,,,,,,,,,,,,,,,,,,,,,,,,,,,,,,,,1049.5754064999637,1049.6287332999636,1050.5462119999574,1050.6461709999712,1054.5749410999706,1054.5749410999706,1055.5793672999716,1055.5461913999752,1055.5461913999752,1061.34671969997,period,1,5.767175499990117,None,1061.3469064999954,1061.3794146999717,1061.3794146999717,1063.3769455999718,3.0,['slash'],1063.3771109000081,1063.4080562999588,1065.3796384999878,,,[1.8613178000086918],[None],,,,,,,,,,,,,,,,,,,,,,,,,,,,,,,,,,,,,,,,,,,,,,,,,,,,,,,,,,,,,,,,,,,,,,,,,,,,,,,,,,,,009,001,2024-06-03_16h21.48.883,ps,2023.2.3,29.899969655615923,2024-06-03 16h23.10.455792 -0400,
mini_blocks/3dp_wm_mini_block_2.xlsx,"*Break*
Entering the 3D WORKING MEMORY block
Rotation is Counter/Clockwise
Press <4> to continue",1,0,0,3D,p,120,False,True,7,obj7,300,60,output_pairs/3Dp_120_WM/3Dp_120_WM_07_1_obj_7_300deg.png,output_pairs/3Dp_120_WM/3Dp_120_WM_07_2_obj_7_60deg.png,350,comma,0,5,5,5,,,,,0,8,8,8,,,,,,,,,1065.424739899987,,,,,,,,,,,,,,,,,,,,,,,,,,,,,,,,,,,,,1065.3798325000098,1065.424739899987,1066.346330099972,1066.4463058999972,1070.379491199972,1070.379491199972,1071.3795278999605,1071.3462876999984,1071.3462876999984,1076.4468043000088,comma,1,5.071961499983445,None,1076.4469990999787,1076.4795274999924,1076.4795274999924,1078.4769373000017,3.0,['slash'],1078.477174300002,1078.5082684999797,1080.479749799997,,,[1.0251691000303254],[None],,,,,,,,,,,,,,,,,,,,,,,,,,,,,,,,,,,,,,,,,,,,,,,,,,,,,,,,,,,,,,,,,,,,,,,,,,,,,,,,,,,,009,001,2024-06-03_16h21.48.883,ps,2023.2.3,29.899969655615923,2024-06-03 16h23.10.455792 -0400,
mini_blocks/3dp_wm_mini_block_2.xlsx,"*Break*
Entering the 3D WORKING MEMORY block
Rotation is Counter/Clockwise
Press <4> to continue",1,0,0,3D,p,60,False,True,26,sm4,120,60,output_pairs/3Dp_60_WM/3Dp_60_WM_26_1_sm_4_120deg.png,output_pairs/3Dp_60_WM/3Dp_60_WM_26_2_sm_4_60deg.png,408,comma,0,5,5,5,,,,,0,9,9,9,,,,,,,,,1080.5250456999638,,,,,,,,,,,,,,,,,,,,,,,,,,,,,,,,,,,,,1080.4799420000054,1080.5250456999638,1081.4419090999872,1081.5418321999605,1085.4750502000097,1085.4414445000002,1086.4795817999984,1086.446272799978,1086.446272799978,1092.3802340999828,comma,1,5.906424599990714,None,1092.3804281000048,1092.4129195999703,1092.4129195999703,1094.4102390999906,4.0,['rshift'],1094.4103953999584,1094.4414125999901,1096.4131008000113,,,[1.6521756000001915],[None],,,,,,,,,,,,,,,,,,,,,,,,,,,,,,,,,,,,,,,,,,,,,,,,,,,,,,,,,,,,,,,,,,,,,,,,,,,,,,,,,,,,009,001,2024-06-03_16h21.48.883,ps,2023.2.3,29.899969655615923,2024-06-03 16h23.10.455792 -0400,
mini_blocks/3dp_wm_mini_block_2.xlsx,"*Break*
Entering the 3D WORKING MEMORY block
Rotation is Counter/Clockwise
Press <4> to continue",1,0,0,3D,p,60,True,True,4,obj3,40,100,output_pairs/3Dp_60_M_WM/3Dp_60_M_WM_04_1_obj_3_40deg.png,output_pairs/3Dp_60_M_WM/3Dp_60_M_WM_04_2_obj_3_100deg.png,316,period,0,5,5,5,,,,,0,10,10,10,,,,,,,,,1096.4668505999725,,,,,,,,,,,,,,,,,,,,,,,,,,,,,,,,,,,,,1096.413321400003,1096.4668505999725,1097.3857634000015,1097.4855362999951,1101.3796340999543,1101.4129577999702,1102.3797207999742,1102.3797207999742,1102.3797207999742,1103.8092402999755,period,1,1.4216015999554656,None,1103.8094471999793,1103.841677599994,1103.841677599994,1105.8126601999975,3.0,['slash'],1105.812819099985,1105.842036999995,1107.8092058000038,1105.842036999995,1105.842036999995,[0.7430917000165209],[None],1107.8640310000046,,,,,,,,,,,,,,,,,,,,,,,,,,,,,,,,,,,,,,,,,,,,,,,,,,,,,,,,,,,,,,,,,,,,,,,,,,,,,,,,,,,009,001,2024-06-03_16h21.48.883,ps,2023.2.3,29.899969655615923,2024-06-03 16h23.10.455792 -0400,
mini_blocks/3dp_wm_mini_block_2.xlsx,"*Break*
Entering the 3D WORKING MEMORY block
Rotation is Counter/Clockwise
Press <4> to continue",1,0,0,3D,p,60,True,True,10,sm4,140,80,output_pairs/3Dp_60_M_WM/3Dp_60_M_WM_10_1_sm_4_140deg.png,output_pairs/3Dp_60_M_WM/3Dp_60_M_WM_10_2_sm_4_80deg.png,291,period,0,5,5,5,,,,,0,11,11,11,,,,,,,,,1107.8640310000046,,,,,,,,,,,,,,,,,,,,,,,,,,,,,,,,,,,,,1107.8093803999946,1107.8640310000046,1108.808692999999,1108.8753483999753,1112.8129297000123,1112.8129297000123,1113.8463708999916,1113.8130234999699,1113.8130234999699,1121.9096405999735,period,1,8.067987499991432,None,1121.9098423999967,1121.9420395999914,1121.9420395999914,1123.9123961000005,3.0,['slash'],1123.9125588999595,1123.9417320999783,1125.9091479000053,1123.9417320999783,1123.9417320999783,[0.9953555999672972],[None],1125.9546700000064,,,,,,,,,,,,,,,,,,,,,,,,,,,,,,,,,,,,,,,,,,,,,,,,,,,,,,,,,,,,,,,,,,,,,,,,,,,,,,,,,,,009,001,2024-06-03_16h21.48.883,ps,2023.2.3,29.899969655615923,2024-06-03 16h23.10.455792 -0400,
mini_blocks/3dp_wm_mini_block_2.xlsx,"*Break*
Entering the 3D WORKING MEMORY block
Rotation is Counter/Clockwise
Press <4> to continue",1,0,0,3D,p,0,True,True,3,obj1,0,0,output_pairs/3Dp_0_M_WM/3Dp_0_M_WM_03_1_obj_1_0deg.png,output_pairs/3Dp_0_M_WM/3Dp_0_M_WM_03_2_obj_1_0deg.png,531,period,0,5,5,5,,,,,0,12,12,12,,,,,,,,,1125.9546700000064,,,,,,,,,,,,,,,,,,,,,,,,,,,,,,,,,,,,,1125.909339500009,1125.9546700000064,1126.9133040999877,1126.9798839999712,1130.946410799981,1130.946410799981,1131.946436600003,1131.913138600008,1131.913138600008,1134.0091350000002,period,1,2.079972200037446,None,1134.0093425000086,1134.041752899997,1134.041752899997,1136.014850699983,3.0,['slash'],1136.0150016999687,1136.0464151999913,1138.0421568999882,,,[1.199942600040231],[None],,,,,,,,,,,,,,,,,,,,,,,,,,,,,,,,,,,,,,,,,,,,,,,,,,,,,,,,,,,,,,,,,,,,,,,,,,,,,,,,,,,,009,001,2024-06-03_16h21.48.883,ps,2023.2.3,29.899969655615923,2024-06-03 16h23.10.455792 -0400,
mini_blocks/3dp_wm_mini_block_2.xlsx,"*Break*
Entering the 3D WORKING MEMORY block
Rotation is Counter/Clockwise
Press <4> to continue",1,0,0,3D,p,120,True,True,24,obj1,280,160,output_pairs/3Dp_120_M_WM/3Dp_120_M_WM_24_1_obj_14_280deg.png,output_pairs/3Dp_120_M_WM/3Dp_120_M_WM_24_2_obj_14_160deg.png,654,period,0,5,5,5,,,,,0,13,13,13,,,,,,,,,1138.0853500000085,,,,,,,,,,,,,,,,,,,,,,,,,,,,,,,,,,,,,1138.0425074999803,1138.0853500000085,1139.0088292,1139.1087968999636,1143.0131606999785,1143.0131606999785,1144.013174599968,1144.013174599968,1144.013174599968,1149.8094919999712,period,1,5.771602799999528,None,1149.809699299978,1149.8417356999707,1149.8417356999707,1151.8129152999609,2.0,['period'],1151.8131173999864,1151.8420172999613,1153.8191293999553,1151.8420172999613,1151.8420172999613,[1.0071846999926493],[None],,,,,,,,,,,,,,,,,,,,,,,,,,,,,,,,,,,,,,,,,,,,,,,,,,,,,,,,,,,,,,,,,,,,,,,,,,,,,,,,,,,,009,001,2024-06-03_16h21.48.883,ps,2023.2.3,29.899969655615923,2024-06-03 16h23.10.455792 -0400,
mini_blocks/3dp_wm_mini_block_2.xlsx,"*Break*
Entering the 3D WORKING MEMORY block
Rotation is Counter/Clockwise
Press <4> to continue",1,0,0,3D,p,120,False,True,19,obj1,20,140,output_pairs/3Dp_120_WM/3Dp_120_WM_19_1_obj_10_20deg.png,output_pairs/3Dp_120_WM/3Dp_120_WM_19_2_obj_10_140deg.png,346,comma,0,5,5,5,,,,,0,14,14,14,,,,,,,,,1153.8807767999824,,,,,,,,,,,,,,,,,,,,,,,,,,,,,,,,,,,,,1153.8193361999583,1153.8807767999824,1154.8088579999749,1154.9087793999934,1158.8089534000028,1158.8089534000028,1159.8089433999849,1159.8089433999849,1159.8089433999849,1162.0427332000108,period,0,2.200089799996931,None,1162.0429530999972,1162.0752532999613,1162.0752532999613,1164.0483629999799,3.0,['slash'],1164.048518800002,1164.0798888999852,1166.0465162000037,,,[0.9581065000384115],[None],,,,,,,,,,,,,,,,,,,,,,,,,,,,,,,,,,,,,,,,,,,,,,,,,,,,,,,,,,,,,,,,,,,,,,,,,,,,,,,,,,,,009,001,2024-06-03_16h21.48.883,ps,2023.2.3,29.899969655615923,2024-06-03 16h23.10.455792 -0400,
mini_blocks/3dp_wm_mini_block_2.xlsx,"*Break*
Entering the 3D WORKING MEMORY block
Rotation is Counter/Clockwise
Press <4> to continue",1,0,0,3D,p,60,False,True,28,sm3,20,320,output_pairs/3Dp_60_WM/3Dp_60_WM_28_1_sm_3_20deg.png,output_pairs/3Dp_60_WM/3Dp_60_WM_28_2_sm_3_320deg.png,401,comma,0,5,5,5,,,,,0,15,15,15,,,,,,,,,1166.094049700012,,,,,,,,,,,,,,,,,,,,,,,,,,,,,,,,,,,,,1166.0466914999997,1166.094049700012,1167.0421375999576,1167.1089112999616,1171.0465916999965,1171.0465916999965,1172.046635799983,1172.046635799983,1172.046635799983,1177.6806062000105,period,0,5.618469200038817,None,1177.6807900999556,1177.7133133999887,1177.7133133999887,1179.710604999971,2.0,['period'],1179.7108282999834,1179.741844700009,1181.7134208999923,,,[1.503708700009156],[None],,,,,,,,,,,,,,,,,,,,,,,,,,,,,,,,,,,,,,,,,,,,,,,,,,,,,,,,,,,,,,,,,,,,,,,,,,,,,,,,,,,,009,001,2024-06-03_16h21.48.883,ps,2023.2.3,29.899969655615923,2024-06-03 16h23.10.455792 -0400,
mini_blocks/3dp_wm_mini_block_2.xlsx,"*Break*
Entering the 3D WORKING MEMORY block
Rotation is Counter/Clockwise
Press <4> to continue",1,0,0,,,,,,,,,,,,,,0,5,5,5,,,,,,,,,,,,,,,,,,,,,,,,,,,,,,,,,,,,,,,,,,,,,,,,,,,,,,,,,,,,,,,,,,,,,,,,,,,,,,,,,,1181.7134903999977,1181.7466496999841,1181.7466496999841,1189.7107305999962,3.0,['slash'],1189.7108749999898,1189.7108982999926,None,,,,,,,,,,,,,[5.2462119000265375],[None],,,,,,,,,,,,,,,,,,,,,,,,,,,,,,,,,,,,,,,,,,,,,,,,,,,,,,,,,,,,009,001,2024-06-03_16h21.48.883,ps,2023.2.3,29.899969655615923,2024-06-03 16h23.10.455792 -0400,
mini_blocks/3dp_wm_mini_block_3.xlsx,"*Break*
Entering the 3D WORKING MEMORY block
Rotation is Counter/Clockwise
Press <4> to continue",1,0,0,3D,p,0,False,True,9,obj1,140,140,output_pairs/3Dp_0_WM/3Dp_0_WM_09_1_obj_12_140deg.png,output_pairs/3Dp_0_WM/3Dp_0_WM_09_2_obj_12_140deg.png,121,comma,0,6,6,6,,,,,0,0,0,0,,,,,,,,,1202.1088289999752,,,,,,,,,,,,,,,,,,,,,,,,,,,,,,1189.7110163999605,1189.7422727000085,1189.7422727000085,1202.0433032999863,rshift,12.299379199976102,None,1202.0558065999649,1202.1088289999752,1203.0423328999896,1203.1092209999915,1207.046711199975,1207.046711199975,1208.0467658999842,1208.0467658999842,1208.0467658999842,1211.814203499991,comma,1,3.7461765999905765,None,1211.8145050999592,1211.8424914999632,1211.8424914999632,1213.8127228000085,None,None,1213.8128525000066,1213.8421543999575,1215.8094895000104,1213.8421543999575,1213.8421543999575,,,1215.8632947999868,,,,,,,,,,,,,,,,,,,,,,,,,,,,,,,,,,,,,,,,,,,,,,,,,,,,,,,,,,,,,,,,,,,,,,,,,,,,,,,,,,,009,001,2024-06-03_16h21.48.883,ps,2023.2.3,29.899969655615923,2024-06-03 16h23.10.455792 -0400,
mini_blocks/3dp_wm_mini_block_3.xlsx,"*Break*
Entering the 3D WORKING MEMORY block
Rotation is Counter/Clockwise
Press <4> to continue",1,0,0,3D,p,60,False,True,8,obj1,240,180,output_pairs/3Dp_60_WM/3Dp_60_WM_08_1_obj_10_240deg.png,output_pairs/3Dp_60_WM/3Dp_60_WM_08_2_obj_10_180deg.png,398,comma,0,6,6,6,,,,,0,1,1,1,,,,,,,,,1215.8632947999868,,,,,,,,,,,,,,,,,,,,,,,,,,,,,,,,,,,,,1215.8096705999924,1215.8632947999868,1216.81367329997,1216.8803125999984,1220.8467136999825,1220.8134487000061,1221.8468439999851,1221.8468439999851,1221.8468439999851,1227.7201517999638,comma,1,5.842214700009208,None,1227.7203468999942,1227.7421467999811,1227.7421467999811,1229.7128670999664,None,None,1229.712953899987,1229.7423479999998,1231.7140527999727,1229.7423479999998,1229.7423479999998,,,1231.7651824000059,,,,,,,,,,,,,,,,,,,,,,,,,,,,,,,,,,,,,,,,,,,,,,,,,,,,,,,,,,,,,,,,,,,,,,,,,,,,,,,,,,,009,001,2024-06-03_16h21.48.883,ps,2023.2.3,29.899969655615923,2024-06-03 16h23.10.455792 -0400,
mini_blocks/3dp_wm_mini_block_3.xlsx,"*Break*
Entering the 3D WORKING MEMORY block
Rotation is Counter/Clockwise
Press <4> to continue",1,0,0,3D,p,120,True,True,14,sm2,340,100,output_pairs/3Dp_120_M_WM/3Dp_120_M_WM_14_1_sm_2_340deg.png,output_pairs/3Dp_120_M_WM/3Dp_120_M_WM_14_2_sm_2_100deg.png,669,period,0,6,6,6,,,,,0,2,2,2,,,,,,,,,1231.7651824000059,,,,,,,,,,,,,,,,,,,,,,,,,,,,,,,,,,,,,1231.7142285999726,1231.7651824000059,1232.7424527999829,1232.7758696000092,1236.7423375999788,1236.7423375999788,1237.7469006999745,1237.7469006999745,1237.7469006999745,1240.976477899996,period,1,3.2139156999764964,None,1240.9766872999608,1241.009011199989,1241.009011199989,1242.9819404999726,3.0,['slash'],1242.9821742000058,1243.013503199967,1244.9802494999603,,,[1.1441461000358686],[None],,,,,,,,,,,,,,,,,,,,,,,,,,,,,,,,,,,,,,,,,,,,,,,,,,,,,,,,,,,,,,,,,,,,,,,,,,,,,,,,,,,,009,001,2024-06-03_16h21.48.883,ps,2023.2.3,29.899969655615923,2024-06-03 16h23.10.455792 -0400,
mini_blocks/3dp_wm_mini_block_3.xlsx,"*Break*
Entering the 3D WORKING MEMORY block
Rotation is Counter/Clockwise
Press <4> to continue",1,0,0,3D,p,0,True,True,27,obj5,180,180,output_pairs/3Dp_0_M_WM/3Dp_0_M_WM_27_1_obj_5_180deg.png,output_pairs/3Dp_0_M_WM/3Dp_0_M_WM_27_2_obj_5_180deg.png,516,period,0,6,6,6,,,,,0,3,3,3,,,,,,,,,1245.033594299981,,,,,,,,,,,,,,,,,,,,,,,,,,,,,,,,,,,,,1244.9804592999863,1245.033594299981,1245.9801251000026,1246.0528187999735,1249.976085799979,1249.976085799979,1250.986169699987,1250.986169699987,1250.986169699987,1256.0096662999713,period,1,5.015882200037595,None,1256.0098735999782,1256.0423055999563,1256.0423055999563,1258.0153137999587,2.0,['period'],1258.0154942999943,1258.0469647999853,1260.0426786000025,,,[1.3027306000003591],[None],,,,,,,,,,,,,,,,,,,,,,,,,,,,,,,,,,,,,,,,,,,,,,,,,,,,,,,,,,,,,,,,,,,,,,,,,,,,,,,,,,,,009,001,2024-06-03_16h21.48.883,ps,2023.2.3,29.899969655615923,2024-06-03 16h23.10.455792 -0400,
mini_blocks/3dp_wm_mini_block_3.xlsx,"*Break*
Entering the 3D WORKING MEMORY block
