condition_file,message_to_show,repN_wm,repN_single,repN_break,dimension,rot_type,angle,mirror,wm,pair_id,obj_id,orientation1,orientation2,image_path_1,image_path_2,marker_id,correctAns,block_loop_main.thisRepN,block_loop_main.thisTrialN,block_loop_main.thisN,block_loop_main.thisIndex,simu_trials_loop.thisRepN,simu_trials_loop.thisTrialN,simu_trials_loop.thisN,simu_trials_loop.thisIndex,wm_trials_loop.thisRepN,wm_trials_loop.thisTrialN,wm_trials_loop.thisN,wm_trials_loop.thisIndex,block_loop_3dd.thisRepN,block_loop_3dd.thisTrialN,block_loop_3dd.thisN,block_loop_3dd.thisIndex,first_3Dd_wm.thisRepN,first_3Dd_wm.thisTrialN,first_3Dd_wm.thisN,first_3Dd_wm.thisIndex,thisRow.t,notes,start.started,text_start.started,key_resp_start.started,start.stopped,key_resp_start.keys,key_resp_start.rt,key_resp_start.duration,instructions.started,key_resp_12.started,image_8.started,instructions.stopped,key_resp_12.keys,key_resp_12.rt,key_resp_12.duration,instructions_2.started,image_9.started,key_resp_20.started,instructions_2.stopped,key_resp_20.keys,key_resp_20.rt,key_resp_20.duration,instructions_3.started,image_10.started,key_resp_21.started,instructions_3.stopped,key_resp_21.keys,key_resp_21.rt,key_resp_21.duration,before_block_instr.started,text_13.started,key_resp_7.started,before_block_instr.stopped,key_resp_7.keys,key_resp_7.rt,key_resp_7.duration,routine_simu.started,text.started,image.started,key_resp.started,text.stopped,routine_simu.stopped,key_resp.keys,key_resp.corr,key_resp.rt,key_resp.duration,vividness.started,image_vivid.started,key_resp_vivid_slider_control.started,image_vivid.stopped,key_resp_vivid_slider_control.stopped,vividness.stopped,vivid_response,key_resp_vivid_slider_control.keys,key_resp_vivid_slider_control.rt,key_resp_vivid_slider_control.duration,ITI.started,text_2.started,ITI.stopped,text_2.stopped,strat.started,image_strat.started,key_resp_strat_control.started,strat.stopped,strategy_response,key_resp_strat_control.keys,key_resp_strat_control.rt,key_resp_strat_control.duration,break_2.started,break_2.stopped,key_resp_13.keys,routine_wm.started,text_4.started,img1.started,text_4.stopped,img1.stopped,text_5.started,img2.started,key_resp_3.started,text_5.stopped,routine_wm.stopped,key_resp_3.keys,key_resp_3.corr,key_resp_3.rt,key_resp_3.duration,image_strat.stopped,key_resp_strat_control.stopped,image.stopped,key_resp.stopped,text_17.started,key_resp_13.started,key_resp_13.rt,key_resp_13.duration,practice_3Dd_screen.started,image_11.started,key_resp_22.started,practice_3Dd_screen.stopped,key_resp_22.keys,key_resp_22.rt,key_resp_22.duration,practice_1_3Dd.started,image_12.started,key_resp_23.started,practice_1_3Dd.stopped,key_resp_23.keys,key_resp_23.rt,key_resp_23.duration,practice_2_3Dd.started,image_13.started,key_resp_24.started,practice_2_3Dd.stopped,key_resp_24.keys,key_resp_24.rt,key_resp_24.duration,wm_3Dd_screen.started,text_16.started,key_resp_11.started,wm_3Dd_screen.stopped,key_resp_11.keys,key_resp_11.rt,key_resp_11.duration,routine_3Dd_wm.started,text_8.started,image_6.started,text_8.stopped,text_12.started,image_6.stopped,text_12.stopped,image_7.started,key_resp_6.started,routine_3Dd_wm.stopped,key_resp_6.keys,key_resp_6.corr,key_resp_6.rt,key_resp_6.duration,end.started,text_22.started,key_resp_18.started,end.stopped,key_resp_18.keys,key_resp_18.rt,key_resp_18.duration,participant,session,date,expName,psychopyVersion,frameRate,expStart,
,,,,,,,,,,,,,,,,,,,,,,,,,,,,,,,,,,,,,,,,0.07444589998340234,0.081723699986469,0.081723699986469,5.728210799978115,rshift,5.633778099960182,None,,,,,,,,,,,,,,,,,,,,,,,,,,,,,,,,,,,,,,,,,,,,,,,,,,,,,,,,,,,,,,,,,,,,,,,,,,,,,,,,,,,,,,,,,,,,,,,,,,,,,,,,,,,,,,,,,,,,,,,,,,,,,,,,,,,,,,,010,001,2024-06-04_17h24.43.597,ps,2023.2.3,30.00485478404752,2024-06-04 17h24.53.279787 -0400,
,,,,,,,,,,,,,,,,,,,,,,,,,,,,,,,,,,,,,,,,,,,,,,,5.728234099980909,5.760784699989017,5.760784699989017,37.727643300022464,rshift,31.946915800042916,None,,,,,,,,,,,,,,,,,,,,,,,,,,,,,,,,,,,,,,,,,,,,,,,,,,,,,,,,,,,,,,,,,,,,,,,,,,,,,,,,,,,,,,,,,,,,,,,,,,,,,,,,,,,,,,,,,,,,,,,,,,,,,,,,010,001,2024-06-04_17h24.43.597,ps,2023.2.3,30.00485478404752,2024-06-04 17h24.53.279787 -0400,
,,,,,,,,,,,,,,,,,,,,,,,,,,,,,,,,,,,,,,,,,,,,,,,,,,,,,,37.727660099975765,37.76028089999454,37.76028089999454,49.42412779998267,rshift,11.634542399959173,None,,,,,,,,,,,,,,,,,,,,,,,,,,,,,,,,,,,,,,,,,,,,,,,,,,,,,,,,,,,,,,,,,,,,,,,,,,,,,,,,,,,,,,,,,,,,,,,,,,,,,,,,,,,,,,,,,,,,,,,,,010,001,2024-06-04_17h24.43.597,ps,2023.2.3,30.00485478404752,2024-06-04 17h24.53.279787 -0400,
,,,,,,,,,,,,,,,,,,,,,,,,,,,,,,,,,,,,,,,,,,,,,,,,,,,,,,,,,,,,,49.424147000012454,49.456801899999846,49.456801899999846,52.22386510000797,rshift,2.7466821999987587,None,,,,,,,,,,,,,,,,,,,,,,,,,,,,,,,,,,,,,,,,,,,,,,,,,,,,,,,,,,,,,,,,,,,,,,,,,,,,,,,,,,,,,,,,,,,,,,,,,,,,,,,,,,,,,,,,,,010,001,2024-06-04_17h24.43.597,ps,2023.2.3,30.00485478404752,2024-06-04 17h24.53.279787 -0400,
mini_blocks/2d_single_mini_block_2.xlsx,"*Break*
Entering the 2D SIMULTANEOUS block
Rotation is Counter/Clockwise
Press <4> to continue",0,1,0,2D,None,0,True,False,None,obj1,300,None,output_pairs/2D_0m/2D_0m_obj_14_300deg.png,None,1124,period,0,0,0,0,0,0,0,0,,,,,,,,,,,,,56.373209599987604,,,,,,,,,,,,,,,,,,,,,,,,,,,,,,52.22889500000747,52.25624349998543,52.25624349998543,56.26779419998638,rshift,4.010410299990326,None,56.2741784999962,56.373209599987604,57.29003670002567,57.29003670002567,57.39409120002529,58.89059600001201,period,1,1.5935754000092857,None,58.890903800027445,58.923021299997345,58.923021299997345,60.92319410003256,60.92319410003256,60.89356210001279,None,['slash'],[1.201222500007134],[None],60.893813400005456,60.92319410003256,62.900683099986054,,,,,,,,,,,,,,,,,,,,,,,,,,,,,,,,,,,,,,,,,,,,,,,,,,,,,,,,,,,,,,,,,,,,,,,,,,,,,,,,,,,,010,001,2024-06-04_17h24.43.597,ps,2023.2.3,30.00485478404752,2024-06-04 17h24.53.279787 -0400,
mini_blocks/2d_single_mini_block_2.xlsx,"*Break*
Entering the 2D SIMULTANEOUS block
Rotation is Counter/Clockwise
Press <4> to continue",0,1,0,2D,None,180,False,False,None,sm4,240,60,output_pairs/2D_180/2D_180_SM4_240_to_60deg.png,None,1074,comma,0,0,0,0,0,1,1,1,,,,,,,,,,,,,62.93999719998101,,,,,,,,,,,,,,,,,,,,,,,,,,,,,,,,,,,,,62.90087200002745,62.93999719998101,63.890148899983615,63.890148899983615,63.95670899999095,66.35729980003089,period,0,2.4499040999799035,None,66.35751000000164,66.38978269998915,66.38978269998915,,,68.36286200000905,3.0,['slash'],[0.9901275000302121],[None],68.3630321000237,68.39012509997701,70.35715579998214,70.39417039998807,,,,,,,,,,,,,,,,,,,,,,,,,,,,,,,,,,,,,,,,,,,,,,,,,,,,,,,,,,,,,,,,,,,,,,,,,,,,,,,,,,,010,001,2024-06-04_17h24.43.597,ps,2023.2.3,30.00485478404752,2024-06-04 17h24.53.279787 -0400,
mini_blocks/2d_single_mini_block_2.xlsx,"*Break*
Entering the 2D SIMULTANEOUS block
Rotation is Counter/Clockwise
Press <4> to continue",0,1,0,2D,None,60,False,False,None,obj2,20,80,output_pairs/2D_60/2D_60_obj_2_20_to_80deg.png,None,940,comma,0,0,0,0,0,2,2,2,,,,,,,,,,,,,70.39417039998807,,,,,,,,,,,,,,,,,,,,,,,,,,,,,,,,,,,,,70.35732760000974,70.39417039998807,71.35678480000934,71.35678480000934,71.42342280002777,72.75739380001323,comma,1,1.3820601000334136,None,72.75760040001478,72.78989760001423,72.78989760001423,74.78993119997904,74.78993119997904,74.7604558999883,3.0,['slash'],[1.1258033000049181],[None],74.76063049997902,74.78993119997904,76.76713910000399,,,,,,,,,,,,,,,,,,,,,,,,,,,,,,,,,,,,,,,,,,,,,,,,,,,,,,,,,,,,,,,,,,,,,,,,,,,,,,,,,,,,010,001,2024-06-04_17h24.43.597,ps,2023.2.3,30.00485478404752,2024-06-04 17h24.53.279787 -0400,
mini_blocks/2d_single_mini_block_2.xlsx,"*Break*
Entering the 2D SIMULTANEOUS block
Rotation is Counter/Clockwise
Press <4> to continue",0,1,0,2D,None,120,False,False,None,obj1,100,220,output_pairs/2D_120/2D_120_obj_13_100_to_220deg.png,None,1088,comma,0,0,0,0,0,3,3,3,,,,,,,,,,,,,76.80645179998828,,,,,,,,,,,,,,,,,,,,,,,,,,,,,,,,,,,,,76.76732009998523,76.80645179998828,77.7569582000142,77.7569582000142,77.82350599998608,80.22400029998971,period,0,2.447268299991265,None,80.22426220000489,80.25651610002387,80.25651610002387,82.25678400002653,82.25678400002653,82.22712220001267,3.0,['slash'],[0.7789999999804422],[None],82.22728079999797,82.25678400002653,84.22786460001953,,,,,,,,,,,,,,,,,,,,,,,,,,,,,,,,,,,,,,,,,,,,,,,,,,,,,,,,,,,,,,,,,,,,,,,,,,,,,,,,,,,,010,001,2024-06-04_17h24.43.597,ps,2023.2.3,30.00485478404752,2024-06-04 17h24.53.279787 -0400,
mini_blocks/2d_single_mini_block_2.xlsx,"*Break*
Entering the 2D SIMULTANEOUS block
Rotation is Counter/Clockwise
Press <4> to continue",0,1,0,2D,None,180,True,False,None,obj1,320,140,output_pairs/2D_180m/2D_180_obj_1_320_to_140deg.png,None,1346,period,0,0,0,0,0,4,4,4,,,,,,,,,,,,,84.26302339998074,,,,,,,,,,,,,,,,,,,,,,,,,,,,,,,,,,,,,84.2280494000297,84.26302339998074,85.22350429999642,85.22350429999642,85.29013939999277,89.22439480002504,comma,0,3.9870327999815345,None,89.2245993000106,89.26077100000111,89.26077100000111,,,91.25856350001413,2.0,['period'],[1.2400210999767296],[None],91.25872510002228,91.289874900016,93.25671039998997,,,,,,,,,,,,,,,,,,,,,,,,,,,,,,,,,,,,,,,,,,,,,,,,,,,,,,,,,,,,,,,,,,,,,,,,,,,,,,,,,,,,010,001,2024-06-04_17h24.43.597,ps,2023.2.3,30.00485478404752,2024-06-04 17h24.53.279787 -0400,
mini_blocks/2d_single_mini_block_2.xlsx,"*Break*
Entering the 2D SIMULTANEOUS block
Rotation is Counter/Clockwise
Press <4> to continue",0,1,0,2D,None,0,True,False,None,obj4,40,None,output_pairs/2D_0m/2D_0m_obj_4_40deg.png,None,1127,period,0,0,0,0,0,5,5,5,,,,,,,,,,,,,93.29506660002517,,,,,,,,,,,,,,,,,,,,,,,,,,,,,,,,,,,,,93.25698579999153,93.29506660002517,94.22800659999484,94.22800659999484,94.29449030000251,95.49517230002675,period,1,1.2476277999812737,None,95.49536760000046,95.52773969998816,95.52773969998816,,,97.52500670001609,3.0,['slash'],[0.8351392999757081],[None],97.52516359998845,97.55626009998377,99.52327990002232,,,,,,,,,,,,,,,,,,,,,,,,,,,,,,,,,,,,,,,,,,,,,,,,,,,,,,,,,,,,,,,,,,,,,,,,,,,,,,,,,,,,010,001,2024-06-04_17h24.43.597,ps,2023.2.3,30.00485478404752,2024-06-04 17h24.53.279787 -0400,
mini_blocks/2d_single_mini_block_2.xlsx,"*Break*
Entering the 2D SIMULTANEOUS block
Rotation is Counter/Clockwise
Press <4> to continue",0,1,0,2D,None,120,True,False,None,sm3,340,100,output_pairs/2D_120m/2D_120m_SM3_340_to_100deg.png,None,1387,period,0,0,0,0,0,6,6,6,,,,,,,,,,,,,99.55933950003237,,,,,,,,,,,,,,,,,,,,,,,,,,,,,,,,,,,,,99.52352669998072,99.55933950003237,100.49475180002628,100.49475180002628,100.56123440002557,103.79105320002418,period,1,3.276061700016726,None,103.79126450000331,103.82311509997817,103.82311509997817,,,105.79629269998986,3.0,['slash'],[0.7244420999777503],[None],105.79644330003066,105.82363410003018,107.79083309997804,107.82805559999542,,,,,,,,,,,,,,,,,,,,,,,,,,,,,,,,,,,,,,,,,,,,,,,,,,,,,,,,,,,,,,,,,,,,,,,,,,,,,,,,,,,010,001,2024-06-04_17h24.43.597,ps,2023.2.3,30.00485478404752,2024-06-04 17h24.53.279787 -0400,
mini_blocks/2d_single_mini_block_2.xlsx,"*Break*
Entering the 2D SIMULTANEOUS block
Rotation is Counter/Clockwise
Press <4> to continue",0,1,0,2D,None,60,False,False,None,sm5,140,200,output_pairs/2D_60/2D_60_SM5_140_to_200deg.png,None,939,comma,0,0,0,0,0,7,7,7,,,,,,,,,,,,,107.82805559999542,,,,,,,,,,,,,,,,,,,,,,,,,,,,,,,,,,,,,107.79100540000945,107.82805559999542,108.80059950001305,108.80059950001305,108.83366399997612,110.42431999999098,comma,1,1.5947419999865815,None,110.42452579998644,110.45706039998913,110.45706039998913,112.4564547999762,112.4564547999762,112.42712579999352,3.0,['slash'],[0.723007199994754],[None],112.4272784999921,112.4564547999762,114.42817050003214,,,,,,,,,,,,,,,,,,,,,,,,,,,,,,,,,,,,,,,,,,,,,,,,,,,,,,,,,,,,,,,,,,,,,,,,,,,,,,,,,,,,010,001,2024-06-04_17h24.43.597,ps,2023.2.3,30.00485478404752,2024-06-04 17h24.53.279787 -0400,
mini_blocks/2d_single_mini_block_2.xlsx,"*Break*
Entering the 2D SIMULTANEOUS block
Rotation is Counter/Clockwise
Press <4> to continue",0,1,0,2D,None,0,False,False,None,sm2,100,None,output_pairs/2D_0/2D_0_SM2_100deg.png,None,2001,comma,0,0,0,0,0,8,8,8,,,,,,,,,,,,,114.46710950002307,,,,,,,,,,,,,,,,,,,,,,,,,,,,,,,,,,,,,114.42835599998944,114.46710950002307,115.42811350000557,115.42811350000557,115.49449720000848,116.96790930000134,comma,1,1.5266146999783814,None,116.96812670002691,116.98984140000539,116.98984140000539,118.98998610000126,118.98998610000126,118.96061359997839,4.0,['rshift'],[0.6691920000012033],[None],118.96077030000743,118.98998610000126,120.96186490001855,120.99725990003208,,,,,,,,,,,,,,,,,,,,,,,,,,,,,,,,,,,,,,,,,,,,,,,,,,,,,,,,,,,,,,,,,,,,,,,,,,,,,,,,,,,010,001,2024-06-04_17h24.43.597,ps,2023.2.3,30.00485478404752,2024-06-04 17h24.53.279787 -0400,
mini_blocks/2d_single_mini_block_2.xlsx,"*Break*
Entering the 2D SIMULTANEOUS block
Rotation is Counter/Clockwise
Press <4> to continue",0,1,0,2D,None,180,True,False,None,obj4,120,300,output_pairs/2D_180m/2D_180m_obj_4_120_to_300deg.png,None,1359,period,0,0,0,0,0,9,9,9,,,,,,,,,,,,,120.99725990003208,,,,,,,,,,,,,,,,,,,,,,,,,,,,,,,,,,,,,120.96203460003017,120.99725990003208,121.9947757999762,121.9947757999762,122.02765990002081,125.09487989998888,period,1,3.071829800028354,None,125.09508320002351,125.12754620000487,125.12754620000487,,,127.10237989999587,3.0,['slash'],[0.7085932000190951],[None],127.10252950002905,127.13418340001954,129.1008008000208,,,,,,,,,,,,,,,,,,,,,,,,,,,,,,,,,,,,,,,,,,,,,,,,,,,,,,,,,,,,,,,,,,,,,,,,,,,,,,,,,,,,010,001,2024-06-04_17h24.43.597,ps,2023.2.3,30.00485478404752,2024-06-04 17h24.53.279787 -0400,
mini_blocks/2d_single_mini_block_2.xlsx,"*Break*
Entering the 2D SIMULTANEOUS block
Rotation is Counter/Clockwise
Press <4> to continue",0,1,0,2D,None,180,False,False,None,obj6,80,260,output_pairs/2D_180/2D_180_obj_6_80_to_260deg.png,None,1067,comma,0,0,0,0,0,10,10,10,,,,,,,,,,,,,129.14330759999575,,,,,,,,,,,,,,,,,,,,,,,,,,,,,,,,,,,,,129.10097760002827,129.14330759999575,130.12362889997894,130.12362889997894,130.156908200006,133.9245095999795,comma,1,3.784594400029164,None,133.92471849999856,133.95682570000645,133.95682570000645,,,135.9297724000062,3.0,['slash'],[0.7829930000007153],[None],135.92992439999944,135.9613225000212,137.9614256999921,,,,,,,,,,,,,,,,,,,,,,,,,,,,,,,,,,,,,,,,,,,,,,,,,,,,,,,,,,,,,,,,,,,,,,,,,,,,,,,,,,,,010,001,2024-06-04_17h24.43.597,ps,2023.2.3,30.00485478404752,2024-06-04 17h24.53.279787 -0400,
mini_blocks/2d_single_mini_block_2.xlsx,"*Break*
Entering the 2D SIMULTANEOUS block
Rotation is Counter/Clockwise
Press <4> to continue",0,1,0,2D,None,0,False,False,None,sm3,140,None,output_pairs/2D_0/2D_0_SM3_140deg.png,None,2009,comma,0,0,0,0,0,11,11,11,,,,,,,,,,,,,137.99792799999705,,,,,,,,,,,,,,,,,,,,,,,,,,,,,,,,,,,,,137.96161160001066,137.99792799999705,138.9570511999773,138.9570511999773,139.0237969000009,140.12446279998403,comma,1,1.1503547999891452,None,140.12466800003313,140.15708660002565,140.15708660002565,142.15670729998965,142.15670729998965,142.12730150000425,4.0,['rshift'],[0.5588374000508338],[None],142.12745550001273,142.15670729998965,144.12820789997932,,,,,,,,,,,,,,,,,,,,,,,,,,,,,,,,,,,,,,,,,,,,,,,,,,,,,,,,,,,,,,,,,,,,,,,,,,,,,,,,,,,,010,001,2024-06-04_17h24.43.597,ps,2023.2.3,30.00485478404752,2024-06-04 17h24.53.279787 -0400,
mini_blocks/2d_single_mini_block_2.xlsx,"*Break*
Entering the 2D SIMULTANEOUS block
Rotation is Counter/Clockwise
Press <4> to continue",0,1,0,2D,None,60,True,False,None,obj2,340,40,output_pairs/2D_60m/2D_60m_obj_2_340_to_40deg.png,None,555,period,0,0,0,0,0,12,12,12,,,,,,,,,,,,,144.16370430000825,,,,,,,,,,,,,,,,,,,,,,,,,,,,,,,,,,,,,144.12844790000236,144.16370430000825,145.13427700003376,145.13427700003376,145.16118589998223,146.59121879999293,period,1,1.437522699998226,None,146.5914269000059,146.6238272000337,146.6238272000337,148.623321400024,148.623321400024,148.59473359998083,4.0,['rshift'],[0.6034815000020899],[None],148.5948910000152,148.623321400024,150.5949518000125,,,,,,,,,,,,,,,,,,,,,,,,,,,,,,,,,,,,,,,,,,,,,,,,,,,,,,,,,,,,,,,,,,,,,,,,,,,,,,,,,,,,010,001,2024-06-04_17h24.43.597,ps,2023.2.3,30.00485478404752,2024-06-04 17h24.53.279787 -0400,
mini_blocks/2d_single_mini_block_2.xlsx,"*Break*
Entering the 2D SIMULTANEOUS block
Rotation is Counter/Clockwise
Press <4> to continue",0,1,0,2D,None,120,True,False,None,sm2,180,300,output_pairs/2D_120m/2D_120m_SM2_180_to_300deg.png,None,1389,period,0,0,0,0,0,13,13,13,,,,,,,,,,,,,150.6321869000094,,,,,,,,,,,,,,,,,,,,,,,,,,,,,,,,,,,,,150.5951387999812,150.6321869000094,151.59496020001825,151.59496020001825,151.66126939997775,153.32416329998523,period,1,1.7044353000237606,None,153.32446849998087,153.35680910001975,153.35680910001975,155.36144270002842,155.36144270002842,155.32778739999048,3.0,"['slash', 'slash']","[1.1670791000360623, 1.894576999999117]","[None, None]",155.32794639997883,155.36144270002842,157.35726700001396,,,,,,,,,,,,,,,,,,,,,,,,,,,,,,,,,,,,,,,,,,,,,,,,,,,,,,,,,,,,,,,,,,,,,,,,,,,,,,,,,,,,010,001,2024-06-04_17h24.43.597,ps,2023.2.3,30.00485478404752,2024-06-04 17h24.53.279787 -0400,
mini_blocks/2d_single_mini_block_2.xlsx,"*Break*
Entering the 2D SIMULTANEOUS block
Rotation is Counter/Clockwise
Press <4> to continue",0,1,0,2D,None,60,True,False,None,obj6,100,160,output_pairs/2D_60m/2D_60m_obj_6_100_to_160deg.png,None,544,period,0,0,0,0,0,14,14,14,,,,,,,,,,,,,157.39351449999958,,,,,,,,,,,,,,,,,,,,,,,,,,,,,,,,,,,,,157.3575593000278,157.39351449999958,158.32374249998247,158.32374249998247,158.4238253000076,160.12474910001038,period,1,1.799905200023204,None,160.12496719998308,160.15682839998044,160.15682839998044,162.15696789999492,162.15696789999492,162.1274491000222,3.0,['slash'],[0.7592644999967888],[None],162.12760389997857,162.15696789999492,164.1283712000004,,,,,,,,,,,,,,,,,,,,,,,,,,,,,,,,,,,,,,,,,,,,,,,,,,,,,,,,,,,,,,,,,,,,,,,,,,,,,,,,,,,,010,001,2024-06-04_17h24.43.597,ps,2023.2.3,30.00485478404752,2024-06-04 17h24.53.279787 -0400,
mini_blocks/2d_single_mini_block_2.xlsx,"*Break*
Entering the 2D SIMULTANEOUS block
Rotation is Counter/Clockwise
Press <4> to continue",0,1,0,2D,None,120,False,False,None,obj1,280,40,output_pairs/2D_120/2D_120_obj_13_280_to_40deg.png,None,1089,comma,0,0,0,0,0,15,15,15,,,,,,,,,,,,,164.16478729998926,,,,,,,,,,,,,,,,,,,,,,,,,,,,,,,,,,,,,164.12854810000863,164.16478729998926,165.13419260003138,165.13419260003138,165.16723229998024,167.79090820002602,comma,1,2.654339600005187,None,167.79119690001244,167.8236317000119,167.8236317000119,,,169.7966506999801,3.0,['slash'],[0.8047079999814741],[None],169.7968062,169.8282717000111,171.80083870003,,,,,,,,,,,,,,,,,,,,,,,,,,,,,,,,,,,,,,,,,,,,,,,,,,,,,,,,,,,,,,,,,,,,,,,,,,,,,,,,,,,,010,001,2024-06-04_17h24.43.597,ps,2023.2.3,30.00485478404752,2024-06-04 17h24.53.279787 -0400,
mini_blocks/2d_single_mini_block_2.xlsx,"*Break*
Entering the 2D SIMULTANEOUS block
Rotation is Counter/Clockwise
Press <4> to continue",0,1,0,,,,,,,,,,,,,,0,0,0,0,,,,,,,,,,,,,,,,,,,,,,,,,,,,,,,,,,,,,,,,,,,,,,,,,,,,,,,,,,,,,,,,,,,,,,,,,,,,,,171.80706199997803,171.83115009998437,171.83115009998437,179.82568010000978,4.0,['rshift'],[3.452471799973864],[None],179.8259358999785,179.82596200000262,None,,,,,,,,,,,,,,,,,,,,,,,,,,,,,,,,,,,,,,,,,,,,,,,,,,,,,,,,,,,,,,,,,,,,,,,,010,001,2024-06-04_17h24.43.597,ps,2023.2.3,30.00485478404752,2024-06-04 17h24.53.279787 -0400,
mini_blocks/2d_wm_mini_block_0.xlsx,"*Break*
Entering the 2D WORKING MEMORY block
Rotation is Counter/Clockwise
Press <4> to continue
               ",1,0,0,2D,None,0,True,True,17,obj9,40,40,output_pairs/2D_0_M_WM/2D_0_M_WM_17_1_obj_9_40deg.png,output_pairs/2D_0_M_WM/2D_0_M_WM_17_2_obj_9_40deg.png,677,period,0,1,1,1,,,,,0,0,0,0,,,,,,,,,182.8881415000069,,,,,,,,,,,,,,,,,,,,,,,,,,,,,,179.82611139997607,179.85704400000395,179.85704400000395,182.72904270002618,rshift,2.850688199978322,None,,,,,,,,,,,191.4914807000314,191.5234749999945,191.5234749999945,,,193.49663780000992,3.0,['slash'],[0.8000023000058718],[None],193.49688510003034,193.52826400002232,195.49519320001127,,,,,,,,,,,,,182.7413993999944,182.8881415000069,183.7343072000076,183.89060959999915,187.75694980000844,187.75694980000844,188.7283234000206,188.7283234000206,188.76161970000248,191.49117140000453,period,1,2.730488700035494,None,,,,,,,,,,,,,,,,,,,,,,,,,,,,,,,,,,,,,,,,,,,,,,,,,,,,,,,,,,010,001,2024-06-04_17h24.43.597,ps,2023.2.3,30.00485478404752,2024-06-04 17h24.53.279787 -0400,
mini_blocks/2d_wm_mini_block_0.xlsx,"*Break*
Entering the 2D WORKING MEMORY block
Rotation is Counter/Clockwise
Press <4> to continue
               ",1,0,0,2D,None,60,False,True,15,obj8,320,20,output_pairs/2D_60_WM/2D_60_WM_15_1_obj_8_320deg.png,output_pairs/2D_60_WM/2D_60_WM_15_2_obj_8_20deg.png,145,comma,0,1,1,1,,,,,0,1,1,1,,,,,,,,,195.5399317999836,,,,,,,,,,,,,,,,,,,,,,,,,,,,,,,,,,,,,,,,,,,,,,,203.25816219998524,203.29020149999997,203.29020149999997,205.2950057000271,205.2950057000271,205.26115530001698,None,None,,,205.261242699984,205.2950057000271,207.26161799998954,,,,,,,,,,,,,195.49540259997593,195.5399317999836,196.50098620000063,196.56756230001338,200.52833870000904,200.4949336000136,201.49504740000702,201.49504740000702,201.49504740000702,203.257954300032,period,0,1.7409536000341177,None,,,,,,,,,,,,,,,,,,,,,,,,,,,,,,,,,,,,,,,,,,,,,,,,,,,,,,,,,,010,001,2024-06-04_17h24.43.597,ps,2023.2.3,30.00485478404752,2024-06-04 17h24.53.279787 -0400,
mini_blocks/2d_wm_mini_block_0.xlsx,"*Break*
Entering the 2D WORKING MEMORY block
Rotation is Counter/Clockwise
Press <4> to continue
               ",1,0,0,2D,None,180,False,True,2,sm1,160,340,output_pairs/2D_180_WM/2D_180_WM_02_1_SM1_160deg.png,output_pairs/2D_180_WM/2D_180_WM_02_2_SM1_340deg.png,727,comma,0,1,1,1,,,,,0,2,2,2,,,,,,,,,207.30519520002417,,,,,,,,,,,,,,,,,,,,,,,,,,,,,,,,,,,,,,,,,,,,,,,216.09169849997852,216.12377360003302,216.12377360003302,,,218.09699799999362,2.0,['period'],[1.6963783000246622],[None],218.09715320001123,218.12838070001453,220.124144100002,,,,,,,,,,,,,207.26179700001376,207.30519520002417,208.25737659999868,208.3240506000002,212.25749119999819,212.25749119999819,213.26176199998008,213.26176199998008,213.26176199998008,216.09149770002114,comma,1,2.8134935999987647,None,,,,,,,,,,,,,,,,,,,,,,,,,,,,,,,,,,,,,,,,,,,,,,,,,,,,,,,,,,010,001,2024-06-04_17h24.43.597,ps,2023.2.3,30.00485478404752,2024-06-04 17h24.53.279787 -0400,
mini_blocks/2d_wm_mini_block_0.xlsx,"*Break*
Entering the 2D WORKING MEMORY block
Rotation is Counter/Clockwise
Press <4> to continue
               ",1,0,0,2D,None,180,False,True,14,obj1,260,80,output_pairs/2D_180_WM/2D_180_WM_14_1_obj_11_260deg.png,output_pairs/2D_180_WM/2D_180_WM_14_2_obj_11_80deg.png,731,comma,0,1,1,1,,,,,0,3,3,3,,,,,,,,,220.17073000001255,,,,,,,,,,,,,,,,,,,,,,,,,,,,,,,,,,,,,,,,,,,,,,,228.39144580002176,228.42382720002206,228.42382720002206,230.42382830003044,230.42382830003044,230.39433959999587,3.0,"['slash', 'slash']","[0.8673754999763332, 1.8279022999922745]","[None, None]",230.39450260001468,230.42382830003044,232.40136020001955,,,,,,,,,,,,,220.12450159998843,220.17073000001255,221.10121980000986,221.20104519999586,225.1236329000094,225.1236329000094,226.09514440002386,226.09514440002386,226.12846049998188,228.39120359998196,comma,1,2.2763627000385895,None,,,,,,,,,,,,,,,,,,,,,,,,,,,,,,,,,,,,,,,,,,,,,,,,,,,,,,,,,,010,001,2024-06-04_17h24.43.597,ps,2023.2.3,30.00485478404752,2024-06-04 17h24.53.279787 -0400,
mini_blocks/2d_wm_mini_block_0.xlsx,"*Break*
Entering the 2D WORKING MEMORY block
Rotation is Counter/Clockwise
Press <4> to continue
               ",1,0,0,2D,None,180,True,True,11,obj6,260,80,output_pairs/2D_180_M_WM/2D_180_M_WM_11_1_obj_6_260deg.png,output_pairs/2D_180_M_WM/2D_180_M_WM_11_2_obj_6_80deg.png,439,period,0,1,1,1,,,,,0,4,4,4,,,,,,,,,232.45223350002198,,,,,,,,,,,,,,,,,,,,,,,,,,,,,,,,,,,,,,,,,,,,,,,240.4961141999811,240.5285921000177,240.5285921000177,,,242.52557659999002,3.0,['slash'],[0.6985694999457337],[None],242.52574339997955,242.55705830000807,244.52413959999103,,,,,,,,,,,,,232.40153480001027,232.45223350002198,233.39089919999242,233.45741350000026,237.3906073999824,237.3906073999824,238.39068439998664,238.39068439998664,238.39068439998664,240.49590969999554,period,1,2.092168600007426,None,,,,,,,,,,,,,,,,,,,,,,,,,,,,,,,,,,,,,,,,,,,,,,,,,,,,,,,,,,010,001,2024-06-04_17h24.43.597,ps,2023.2.3,30.00485478404752,2024-06-04 17h24.53.279787 -0400,
mini_blocks/2d_wm_mini_block_0.xlsx,"*Break*
Entering the 2D WORKING MEMORY block
Rotation is Counter/Clockwise
Press <4> to continue
               ",1,0,0,2D,None,120,True,True,9,sm3,60,300,output_pairs/2D_120_M_WM/2D_120_M_WM_09_1_SM3_60deg.png,output_pairs/2D_120_M_WM/2D_120_M_WM_09_2_SM3_300deg.png,241,period,0,1,1,1,,,,,0,5,5,5,,,,,,,,,244.5707107000053,,,,,,,,,,,,,,,,,,,,,,,,,,,,,,,,,,,,,,,,,,,,,,,253.4915764000034,253.52402240002993,253.52402240002993,,,255.4970601000241,3.0,['slash'],[0.975729700003285],[None],255.4972420000122,255.52854590001516,257.5015121999895,,,,,,,,,,,,,244.52446430001874,244.5707107000053,245.49524030002067,245.59533480001846,249.49089840002125,249.49089840002125,250.49524810002185,250.49524810002185,250.49524810002185,253.4913787000114,period,1,2.9805763000040315,None,,,,,,,,,,,,,,,,,,,,,,,,,,,,,,,,,,,,,,,,,,,,,,,,,,,,,,,,,,010,001,2024-06-04_17h24.43.597,ps,2023.2.3,30.00485478404752,2024-06-04 17h24.53.279787 -0400,
mini_blocks/2d_wm_mini_block_0.xlsx,"*Break*
Entering the 2D WORKING MEMORY block
Rotation is Counter/Clockwise
Press <4> to continue
               ",1,0,0,2D,None,120,True,True,16,obj3,100,220,output_pairs/2D_120_M_WM/2D_120_M_WM_16_1_obj_3_100deg.png,output_pairs/2D_120_M_WM/2D_120_M_WM_16_2_obj_3_220deg.png,238,period,0,1,1,1,,,,,0,6,6,6,,,,,,,,,257.5508222000208,,,,,,,,,,,,,,,,,,,,,,,,,,,,,,,,,,,,,,,,,,,,,,,265.9251313999994,265.9573054999928,265.9573054999928,267.9619098000112,267.9619098000112,267.92823510000017,3.0,['slash'],[0.8864536000182852],[None],267.92839419998927,267.9619098000112,269.95781739999074,,,,,,,,,,,,,257.5016980000073,257.5508222000208,258.4908086999785,258.5574987999862,262.49518909998005,262.49518909998005,263.4952793000266,263.4952793000266,263.4952793000266,265.9249219999765,period,1,2.4047109000384808,None,,,,,,,,,,,,,,,,,,,,,,,,,,,,,,,,,,,,,,,,,,,,,,,,,,,,,,,,,,010,001,2024-06-04_17h24.43.597,ps,2023.2.3,30.00485478404752,2024-06-04 17h24.53.279787 -0400,
mini_blocks/2d_wm_mini_block_0.xlsx,"*Break*
Entering the 2D WORKING MEMORY block
Rotation is Counter/Clockwise
Press <4> to continue
               ",1,0,0,2D,None,0,True,True,21,sm2,100,100,output_pairs/2D_0_M_WM/2D_0_M_WM_21_1_SM2_100deg.png,output_pairs/2D_0_M_WM/2D_0_M_WM_21_2_SM2_100deg.png,676,period,0,1,1,1,,,,,0,7,7,7,,,,,,,,,270.00151189998724,,,,,,,,,,,,,,,,,,,,,,,,,,,,,,,,,,,,,,,,,,,,,,,277.55855249997694,277.59056059998693,277.59056059998693,279.595272400009,279.595272400009,279.5613184000249,3.0,['slash'],[0.7730524000362493],[None],279.56146110000554,279.595272400009,281.56198810000205,,,,,,,,,,,,,269.95809159998316,270.00151189998724,270.92858700000215,271.0284705000231,274.9286409000051,274.9286409000051,275.9287188000162,275.9287188000162,275.9287188000162,277.5583441000199,period,1,1.6031886000419036,None,,,,,,,,,,,,,,,,,,,,,,,,,,,,,,,,,,,,,,,,,,,,,,,,,,,,,,,,,,010,001,2024-06-04_17h24.43.597,ps,2023.2.3,30.00485478404752,2024-06-04 17h24.53.279787 -0400,
mini_blocks/2d_wm_mini_block_0.xlsx,"*Break*
Entering the 2D WORKING MEMORY block
Rotation is Counter/Clockwise
Press <4> to continue
               ",1,0,0,2D,None,180,True,True,12,obj2,260,80,output_pairs/2D_180_M_WM/2D_180_M_WM_12_1_obj_2_260deg.png,output_pairs/2D_180_M_WM/2D_180_M_WM_12_2_obj_2_80deg.png,419,period,0,1,1,1,,,,,0,8,8,8,,,,,,,,,281.60781060002046,,,,,,,,,,,,,,,,,,,,,,,,,,,,,,,,,,,,,,,,,,,,,,,289.4251695999992,289.45727230003104,289.45727230003104,291.45740190002834,291.45740190002834,291.427773399977,3.0,['slash'],[0.8338360000052489],[None],291.4279195999843,291.45740190002834,293.4349607999902,,,,,,,,,,,,,281.56217410002137,281.60781060002046,282.56789609999396,282.63483350002207,286.5910266999854,286.561893999984,287.5575967000332,287.5575967000332,287.5575967000332,289.4248913000338,period,1,1.8372078000102192,None,,,,,,,,,,,,,,,,,,,,,,,,,,,,,,,,,,,,,,,,,,,,,,,,,,,,,,,,,,010,001,2024-06-04_17h24.43.597,ps,2023.2.3,30.00485478404752,2024-06-04 17h24.53.279787 -0400,
mini_blocks/2d_wm_mini_block_0.xlsx,"*Break*
Entering the 2D WORKING MEMORY block
Rotation is Counter/Clockwise
Press <4> to continue
               ",1,0,0,2D,None,0,False,True,11,obj8,260,260,output_pairs/2D_0_WM/2D_0_WM_11_1_obj_8_260deg.png,output_pairs/2D_0_WM/2D_0_WM_11_2_obj_8_260deg.png,211,comma,0,1,1,1,,,,,0,9,9,9,,,,,,,,,293.4997596000321,,,,,,,,,,,,,,,,,,,,,,,,,,,,,,,,,,,,,,,,,,,,,,,300.72527699999046,300.7572838999913,300.7572838999913,,,302.7305169000174,3.0,['slash'],[1.0382444999995641],[None],302.7306966999895,302.7620685999864,304.7578722999897,,,,,,,,,,,,,293.4351337000262,293.4997596000321,294.42435300000943,294.524424800009,298.42428470001323,298.42428470001323,299.4288292999845,299.4288292999845,299.4288292999845,300.72503640002105,comma,1,1.2788324999855831,None,,,,,,,,,,,,,,,,,,,,,,,,,,,,,,,,,,,,,,,,,,,,,,,,,,,,,,,,,,010,001,2024-06-04_17h24.43.597,ps,2023.2.3,30.00485478404752,2024-06-04 17h24.53.279787 -0400,
mini_blocks/2d_wm_mini_block_0.xlsx,"*Break*
Entering the 2D WORKING MEMORY block
Rotation is Counter/Clockwise
Press <4> to continue
               ",1,0,0,2D,None,0,False,True,19,obj1,160,160,output_pairs/2D_0_WM/2D_0_WM_19_1_obj_12_160deg.png,output_pairs/2D_0_WM/2D_0_WM_19_2_obj_12_160deg.png,209,comma,0,1,1,1,,,,,0,10,10,10,,,,,,,,,304.8310988000012,,,,,,,,,,,,,,,,,,,,,,,,,,,,,,,,,,,,,,,,,,,,,,,312.19191870000213,312.22416809998685,312.22416809998685,314.2245457000099,314.2245457000099,314.19491650001146,4.0,['rshift'],[1.1885031000128947],[None],314.1950972999912,314.2245457000099,316.1954927999759,,,,,,,,,,,,,304.7581491000019,304.8310988000012,305.7244504999835,305.8578103000182,309.7244349999819,309.7244349999819,310.7347793999943,310.7347793999943,310.7347793999943,312.1917101999861,comma,1,1.4291658999864012,None,,,,,,,,,,,,,,,,,,,,,,,,,,,,,,,,,,,,,,,,,,,,,,,,,,,,,,,,,,010,001,2024-06-04_17h24.43.597,ps,2023.2.3,30.00485478404752,2024-06-04 17h24.53.279787 -0400,
mini_blocks/2d_wm_mini_block_0.xlsx,"*Break*
Entering the 2D WORKING MEMORY block
Rotation is Counter/Clockwise
Press <4> to continue
               ",1,0,0,2D,None,60,True,True,5,obj1,160,220,output_pairs/2D_60_M_WM/2D_60_M_WM_05_1_obj_11_160deg.png,output_pairs/2D_60_M_WM/2D_60_M_WM_05_2_obj_11_220deg.png,618,period,0,1,1,1,,,,,0,11,11,11,,,,,,,,,316.25006400002167,,,,,,,,,,,,,,,,,,,,,,,,,,,,,,,,,,,,,,,,,,,,,,,325.5921228000079,325.62425090000033,325.62425090000033,,,327.5973396000336,None,None,,,327.5974328999873,327.6289041999844,329.6289013000205,,,,,,,,,,,,,316.1956787999952,316.25006400002167,317.19548910000594,317.25788140000077,321.19116400001803,321.19116400001803,322.2017158999806,322.2017158999806,322.2017158999806,325.59192460001213,comma,0,3.3858483000076376,None,,,,,,,,,,,,,,,,,,,,,,,,,,,,,,,,,,,,,,,,,,,,,,,,,,,,,,,,,,010,001,2024-06-04_17h24.43.597,ps,2023.2.3,30.00485478404752,2024-06-04 17h24.53.279787 -0400,
mini_blocks/2d_wm_mini_block_0.xlsx,"*Break*
Entering the 2D WORKING MEMORY block
Rotation is Counter/Clockwise
Press <4> to continue
               ",1,0,0,2D,None,120,False,True,7,obj8,340,220,output_pairs/2D_120_WM/2D_120_WM_07_1_obj_8_340deg.png,output_pairs/2D_120_WM/2D_120_WM_07_2_obj_8_220deg.png,188,comma,0,1,1,1,,,,,0,12,12,12,,,,,,,,,329.67690610000864,,,,,,,,,,,,,,,,,,,,,,,,,,,,,,,,,,,,,,,,,,,,,,,337.19209430000046,337.2245585999917,337.2245585999917,339.22886809997726,339.22886809997726,339.19498249999015,3.0,['slash'],[1.0430790000245906],[None],339.1951341999811,339.22886809997726,341.22481570002856,,,,,,,,,,,,,329.6290803999873,329.67690610000864,330.5913101999904,330.69551990000764,334.5955530999927,334.5955530999927,335.6014099000022,335.6014099000022,335.6014099000022,337.1919019999914,comma,1,1.5627429999876767,None,,,,,,,,,,,,,,,,,,,,,,,,,,,,,,,,,,,,,,,,,,,,,,,,,,,,,,,,,,010,001,2024-06-04_17h24.43.597,ps,2023.2.3,30.00485478404752,2024-06-04 17h24.53.279787 -0400,
mini_blocks/2d_wm_mini_block_0.xlsx,"*Break*
Entering the 2D WORKING MEMORY block
Rotation is Counter/Clockwise
Press <4> to continue
               ",1,0,0,2D,None,60,False,True,27,obj8,120,60,output_pairs/2D_60_WM/2D_60_WM_27_1_obj_8_120deg.png,output_pairs/2D_60_WM/2D_60_WM_27_2_obj_8_60deg.png,150,comma,0,1,1,1,,,,,0,13,13,13,,,,,,,,,341.2842049000319,,,,,,,,,,,,,,,,,,,,,,,,,,,,,,,,,,,,,,,,,,,,,,,348.99219640000956,349.02419490000466,349.02419490000466,,,350.99741000001086,3.0,['slash'],[0.6355810000095516],[None],350.9975626000087,351.0289090999868,353.02898810000625,,,,,,,,,,,,,341.2250714999973,341.2842049000319,342.1912860000157,342.29555330000585,346.1909361000289,346.1909361000289,347.1956683000317,347.1956683000317,347.1956683000317,348.99198039999465,comma,1,1.7673319999594241,None,,,,,,,,,,,,,,,,,,,,,,,,,,,,,,,,,,,,,,,,,,,,,,,,,,,,,,,,,,010,001,2024-06-04_17h24.43.597,ps,2023.2.3,30.00485478404752,2024-06-04 17h24.53.279787 -0400,
mini_blocks/2d_wm_mini_block_0.xlsx,"*Break*
Entering the 2D WORKING MEMORY block
Rotation is Counter/Clockwise
Press <4> to continue
               ",1,0,0,2D,None,120,False,True,6,obj1,240,0,output_pairs/2D_120_WM/2D_120_WM_06_1_obj_14_240deg.png,output_pairs/2D_120_WM/2D_120_WM_06_2_obj_14_0deg.png,182,comma,0,1,1,1,,,,,0,14,14,14,,,,,,,,,353.07662399997935,,,,,,,,,,,,,,,,,,,,,,,,,,,,,,,,,,,,,,,,,,,,,,,360.1922551000025,360.2243879000307,360.2243879000307,,,362.1973912999965,3.0,['slash'],[0.7385102000553161],[None],362.19757439999375,362.2247092000325,364.20157510001445,,,,,,,,,,,,,353.02917699998943,353.07662399997935,353.9912850999972,354.0913037999999,357.9956562999869,357.9956562999869,359.00175970001146,359.00175970001146,359.00175970001146,360.1919985000277,comma,1,1.1781285000033677,None,,,,,,,,,,,,,,,,,,,,,,,,,,,,,,,,,,,,,,,,,,,,,,,,,,,,,,,,,,010,001,2024-06-04_17h24.43.597,ps,2023.2.3,30.00485478404752,2024-06-04 17h24.53.279787 -0400,
mini_blocks/2d_wm_mini_block_0.xlsx,"*Break*
Entering the 2D WORKING MEMORY block
Rotation is Counter/Clockwise
Press <4> to continue
               ",1,0,0,2D,None,60,True,True,30,sm2,200,140,output_pairs/2D_60_M_WM/2D_60_M_WM_30_1_SM2_200deg.png,output_pairs/2D_60_M_WM/2D_60_M_WM_30_2_SM2_140deg.png,633,period,0,1,1,1,,,,,0,15,15,15,,,,,,,,,364.24860950000584,,,,,,,,,,,,,,,,,,,,,,,,,,,,,,,,,,,,,,,,,,,,,,,371.6589761999785,371.6909886000212,371.6909886000212,373.69105740002124,373.69105740002124,373.6623408999876,3.0,['slash'],[0.8401015999843366],[None],373.6624867999926,373.69105740002124,375.66268339997623,,,,,,,,,,,,,364.201756399998,364.24860950000584,365.191392800014,365.25806259998353,369.1956664000172,369.1956664000172,370.1957666000235,370.1957666000235,370.1957666000235,371.65877660003025,period,1,1.4560500999796204,None,,,,,,,,,,,,,,,,,,,,,,,,,,,,,,,,,,,,,,,,,,,,,,,,,,,,,,,,,,010,001,2024-06-04_17h24.43.597,ps,2023.2.3,30.00485478404752,2024-06-04 17h24.53.279787 -0400,
mini_blocks/2d_wm_mini_block_0.xlsx,"*Break*
Entering the 2D WORKING MEMORY block
Rotation is Counter/Clockwise
Press <4> to continue
               ",1,0,0,,,,,,,,,,,,,,0,1,1,1,,,,,,,,,,,,,,,,,,,,,,,,,,,,,,,,,,,,,,,,,,,,,,,,,,,,,,,,,,,,,,,,,,,,,,,,,,,,,,375.6627524999785,375.69585469999583,375.69585469999583,383.6933053000248,3.0,['slash'],[2.6996857000049204],[None],383.6934594999766,383.69348549999995,None,,,,,,,,,,,,,,,,,,,,,,,,,,,,,,,,,,,,,,,,,,,,,,,,,,,,,,,,,,,,,,,,,,,,,,,,010,001,2024-06-04_17h24.43.597,ps,2023.2.3,30.00485478404752,2024-06-04 17h24.53.279787 -0400,
mini_blocks/2d_single_mini_block_1.xlsx,"*Break*
Entering the 2D SIMULTANEOUS block
Rotation is Counter/Clockwise
Press <4> to continue",0,1,0,2D,None,60,False,False,None,obj7,100,160,output_pairs/2D_60/2D_60_obj_7_100_to_160deg.png,None,928,comma,0,2,2,2,0,0,0,0,,,,,,,,,,,,,385.9503627999802,,,,,,,,,,,,,,,,,,,,,,,,,,,,,,383.6936241000076,383.7243561000214,383.7243561000214,385.89228999998886,rshift,2.166896099981386,None,385.89884849998634,385.9503627999802,386.9246449000202,386.9246449000202,386.96229639998637,388.3965822000173,comma,1,1.470718999975361,None,388.3968851999962,388.4290745999897,388.4290745999897,,,390.42651140003,3.0,['slash'],[0.8232482000021264],[None],390.4267608000082,390.4577620999771,392.42931269999826,,,,,,,,,,,,,,,,,,,,,,,,,,,,,,,,,,,,,,,,,,,,,,,,,,,,,,,,,,,,,,,,,,,,,,,,,,,,,,,,,,,,010,001,2024-06-04_17h24.43.597,ps,2023.2.3,30.00485478404752,2024-06-04 17h24.53.279787 -0400,
mini_blocks/2d_single_mini_block_1.xlsx,"*Break*
Entering the 2D SIMULTANEOUS block
Rotation is Counter/Clockwise
Press <4> to continue",0,1,0,2D,None,180,True,False,None,obj1,200,20,output_pairs/2D_180m/2D_180m_obj_14_200_to_20deg.png,None,1374,period,0,2,2,2,0,1,1,1,,,,,,,,,,,,,392.4663864999893,,,,,,,,,,,,,,,,,,,,,,,,,,,,,,,,,,,,,392.4295009999769,392.4663864999893,393.4018796000164,393.4018796000164,393.4681067999918,396.05887690000236,period,1,2.6336825999896973,None,396.0590876999777,396.0911417999887,396.0911417999887,,,398.0642466000281,3.0,['slash'],[0.6084019999834709],[None],398.0643970000092,398.0959108999814,400.0686044000322,,,,,,,,,,,,,,,,,,,,,,,,,,,,,,,,,,,,,,,,,,,,,,,,,,,,,,,,,,,,,,,,,,,,,,,,,,,,,,,,,,,,010,001,2024-06-04_17h24.43.597,ps,2023.2.3,30.00485478404752,2024-06-04 17h24.53.279787 -0400,
mini_blocks/2d_single_mini_block_1.xlsx,"*Break*
Entering the 2D SIMULTANEOUS block
Rotation is Counter/Clockwise
Press <4> to continue",0,1,0,2D,None,120,False,False,None,obj6,240,0,output_pairs/2D_120/2D_120_obj_6_240_to_0deg.png,None,1108,comma,0,2,2,2,0,2,2,2,,,,,,,,,,,,,400.1112235999899,,,,,,,,,,,,,,,,,,,,,,,,,,,,,,,,,,,,,400.06878750002943,400.1112235999899,401.0583179999958,401.0583179999958,401.124897599977,403.12549399997806,comma,1,2.0500605999841355,None,403.1257011999842,403.15787230001297,403.15787230001297,405.1580935000093,405.1580935000093,405.1284333000076,3.0,"['slash', 'slash']","[0.733817900007125, 1.565691199968569]","[None, None]",405.1286012000055,405.1580935000093,407.12942050001584,,,,,,,,,,,,,,,,,,,,,,,,,,,,,,,,,,,,,,,,,,,,,,,,,,,,,,,,,,,,,,,,,,,,,,,,,,,,,,,,,,,,010,001,2024-06-04_17h24.43.597,ps,2023.2.3,30.00485478404752,2024-06-04 17h24.53.279787 -0400,
mini_blocks/2d_single_mini_block_1.xlsx,"*Break*
Entering the 2D SIMULTANEOUS block
Rotation is Counter/Clockwise
Press <4> to continue",0,1,0,2D,None,120,True,False,None,obj5,320,80,output_pairs/2D_120m/2D_120m_obj_5_320_to_80deg.png,None,1404,period,0,2,2,2,0,3,3,3,,,,,,,,,,,,,407.1666215999867,,,,,,,,,,,,,,,,,,,,,,,,,,,,,,,,,,,,,407.1296121000196,407.1666215999867,408.1351671000011,408.1351671000011,408.1687987999758,410.2588123999885,period,1,2.1085404999903403,None,410.25901959999464,410.2913717000047,410.2913717000047,,,412.2643013999914,3.0,['slash'],[0.6088579000206664],[None],412.26445800001966,412.29592509998474,414.2916324000107,,,,,,,,,,,,,,,,,,,,,,,,,,,,,,,,,,,,,,,,,,,,,,,,,,,,,,,,,,,,,,,,,,,,,,,,,,,,,,,,,,,,010,001,2024-06-04_17h24.43.597,ps,2023.2.3,30.00485478404752,2024-06-04 17h24.53.279787 -0400,
mini_blocks/2d_single_mini_block_1.xlsx,"*Break*
Entering the 2D SIMULTANEOUS block
Rotation is Counter/Clockwise
Press <4> to continue",0,1,0,2D,None,0,True,False,None,sm2,220,None,output_pairs/2D_0m/2D_0m_SM2_220deg.png,None,1137,period,0,2,2,2,0,4,4,4,,,,,,,,,,,,,414.329091600026,,,,,,,,,,,,,,,,,,,,,,,,,,,,,,,,,,,,,414.29183390003163,414.329091600026,415.2625232000137,415.2625232000137,415.33454290003283,418.0255603999831,period,1,2.740738800028339,None,418.0257725000265,418.05790020001587,418.05790020001587,,,420.0310944999801,3.0,['slash'],[0.673158300051],[None],420.0312458000262,420.0625725000282,422.0583688999759,,,,,,,,,,,,,,,,,,,,,,,,,,,,,,,,,,,,,,,,,,,,,,,,,,,,,,,,,,,,,,,,,,,,,,,,,,,,,,,,,,,,010,001,2024-06-04_17h24.43.597,ps,2023.2.3,30.00485478404752,2024-06-04 17h24.53.279787 -0400,
mini_blocks/2d_single_mini_block_1.xlsx,"*Break*
Entering the 2D SIMULTANEOUS block
Rotation is Counter/Clockwise
Press <4> to continue",0,1,0,2D,None,60,True,False,None,obj9,180,240,output_pairs/2D_60m/2D_60m_obj_9_180_to_240deg.png,None,554,period,0,2,2,2,0,5,5,5,,,,,,,,,,,,,422.0961054000072,,,,,,,,,,,,,,,,,,,,,,,,,,,,,,,,,,,,,422.0586724000168,422.0961054000072,423.0352585000219,423.0352585000219,423.10237660002895,426.4962356000324,period,1,3.440935200022068,None,426.49644190003164,426.5289456000319,426.5289456000319,,,428.52640650002286,3.0,['slash'],[0.603047400014475],[None],428.52657049999107,428.5577509999857,430.5249246000312,,,,,,,,,,,,,,,,,,,,,,,,,,,,,,,,,,,,,,,,,,,,,,,,,,,,,,,,,,,,,,,,,,,,,,,,,,,,,,,,,,,,010,001,2024-06-04_17h24.43.597,ps,2023.2.3,30.00485478404752,2024-06-04 17h24.53.279787 -0400,
mini_blocks/2d_single_mini_block_1.xlsx,"*Break*
Entering the 2D SIMULTANEOUS block
Rotation is Counter/Clockwise
Press <4> to continue",0,1,0,2D,None,180,True,False,None,obj1,160,340,output_pairs/2D_180m/2D_180_obj_1_160_to_340deg.png,None,1350,period,0,2,2,2,0,6,6,6,,,,,,,,,,,,,430.5615819999948,,,,,,,,,,,,,,,,,,,,,,,,,,,,,,,,,,,,,430.525339099986,430.5615819999948,431.49607009999454,431.49607009999454,431.5628394000232,435.42569140001433,comma,0,3.907154599961359,None,435.4258984000189,435.458129799983,435.458129799983,,,437.431168399984,2.0,['period'],[0.9371091999928467],[None],437.4313182000187,437.4626545999781,439.4583450999926,,,,,,,,,,,,,,,,,,,,,,,,,,,,,,,,,,,,,,,,,,,,,,,,,,,,,,,,,,,,,,,,,,,,,,,,,,,,,,,,,,,,010,001,2024-06-04_17h24.43.597,ps,2023.2.3,30.00485478404752,2024-06-04 17h24.53.279787 -0400,
mini_blocks/2d_single_mini_block_1.xlsx,"*Break*
Entering the 2D SIMULTANEOUS block
Rotation is Counter/Clockwise
Press <4> to continue",0,1,0,2D,None,0,True,False,None,sm4,60,None,output_pairs/2D_0m/2D_0m_SM4_60deg.png,None,1150,period,0,2,2,2,0,7,7,7,,,,,,,,,,,,,439.4969833000214,,,,,,,,,,,,,,,,,,,,,,,,,,,,,,,,,,,,,439.4585833000019,439.4969833000214,440.43542310001794,440.43542310001794,440.5250678000157,444.95900309999706,period,1,4.4959008999867365,None,444.9592110000085,444.99143519997597,444.99143519997597,,,446.9648199999938,3.0,['slash'],[0.6765541000058874],[None],446.96498200000497,446.99599399999715,448.9919585000025,,,,,,,,,,,,,,,,,,,,,,,,,,,,,,,,,,,,,,,,,,,,,,,,,,,,,,,,,,,,,,,,,,,,,,,,,,,,,,,,,,,,010,001,2024-06-04_17h24.43.597,ps,2023.2.3,30.00485478404752,2024-06-04 17h24.53.279787 -0400,
mini_blocks/2d_single_mini_block_1.xlsx,"*Break*
Entering the 2D SIMULTANEOUS block
Rotation is Counter/Clockwise
Press <4> to continue",0,1,0,2D,None,120,False,False,None,obj9,240,0,output_pairs/2D_120/2D_120_obj_9_240_to_0deg.png,None,1109,comma,0,2,2,2,0,8,8,8,,,,,,,,,,,,,449.0296427999856,,,,,,,,,,,,,,,,,,,,,,,,,,,,,,,,,,,,,448.9922482999973,449.0296427999856,449.9689074999769,449.9689074999769,450.03544150001835,451.92506650002906,comma,1,1.9394992000306956,None,451.92527509998763,451.95812790002674,451.95812790002674,,,453.92698240000755,3.0,['slash'],[0.5809305000002496],[None],453.927140099986,453.96271120000165,455.93571360001806,,,,,,,,,,,,,,,,,,,,,,,,,,,,,,,,,,,,,,,,,,,,,,,,,,,,,,,,,,,,,,,,,,,,,,,,,,,,,,,,,,,,010,001,2024-06-04_17h24.43.597,ps,2023.2.3,30.00485478404752,2024-06-04 17h24.53.279787 -0400,
mini_blocks/2d_single_mini_block_1.xlsx,"*Break*
Entering the 2D SIMULTANEOUS block
Rotation is Counter/Clockwise
Press <4> to continue",0,1,0,2D,None,0,False,False,None,obj1,120,None,output_pairs/2D_0/2D_0_obj_13_120deg.png,None,1996,comma,0,2,2,2,0,9,9,9,,,,,,,,,,,,,455.9724013999803,,,,,,,,,,,,,,,,,,,,,,,,,,,,,,,,,,,,,455.9358913000324,455.9724013999803,456.92937790002907,456.92937790002907,456.99174359999597,458.3256441000267,comma,1,1.3627737000351772,None,458.325857000018,458.3581120999879,458.3581120999879,460.358069400012,460.358069400012,460.32872019999195,4.0,['rshift'],[0.5009898999705911],[None],460.3288745000027,460.358069400012,462.325444600021,462.3618423999869,,,,,,,,,,,,,,,,,,,,,,,,,,,,,,,,,,,,,,,,,,,,,,,,,,,,,,,,,,,,,,,,,,,,,,,,,,,,,,,,,,,010,001,2024-06-04_17h24.43.597,ps,2023.2.3,30.00485478404752,2024-06-04 17h24.53.279787 -0400,
mini_blocks/2d_single_mini_block_1.xlsx,"*Break*
Entering the 2D SIMULTANEOUS block
Rotation is Counter/Clockwise
Press <4> to continue",0,1,0,2D,None,180,False,False,None,obj8,340,160,output_pairs/2D_180/2D_180_obj_8_340_to_160deg.png,None,1071,comma,0,2,2,2,0,10,10,10,,,,,,,,,,,,,462.3618423999869,,,,,,,,,,,,,,,,,,,,,,,,,,,,,,,,,,,,,462.32562269998016,462.3618423999869,463.3296241000062,463.3296241000062,463.3629446999985,469.16415959998267,comma,1,5.833504099980928,None,469.1643589999876,469.1962416000315,469.1962416000315,,,471.17027750000125,3.0,['slash'],[0.6804393999627791],[None],471.1704264000291,471.2023048999836,473.16911060002167,,,,,,,,,,,,,,,,,,,,,,,,,,,,,,,,,,,,,,,,,,,,,,,,,,,,,,,,,,,,,,,,,,,,,,,,,,,,,,,,,,,,010,001,2024-06-04_17h24.43.597,ps,2023.2.3,30.00485478404752,2024-06-04 17h24.53.279787 -0400,
mini_blocks/2d_single_mini_block_1.xlsx,"*Break*
Entering the 2D SIMULTANEOUS block
Rotation is Counter/Clockwise
Press <4> to continue",0,1,0,2D,None,180,False,False,None,obj7,140,320,output_pairs/2D_180/2D_180_obj_7_140_to_320deg.png,None,1069,comma,0,2,2,2,0,11,11,11,,,,,,,,,,,,,473.2126028999919,,,,,,,,,,,,,,,,,,,,,,,,,,,,,,,,,,,,,473.16929180000443,473.2126028999919,474.1918810000061,474.1918810000061,474.2254412000184,477.2258917000145,period,0,3.0197494000312872,None,477.2261016999837,477.2581558999955,477.2581558999955,479.2629361000145,479.2629361000145,479.2289849999943,None,None,,,479.2290831999853,479.2629361000145,481.25871299998835,,,,,,,,,,,,,,,,,,,,,,,,,,,,,,,,,,,,,,,,,,,,,,,,,,,,,,,,,,,,,,,,,,,,,,,,,,,,,,,,,,,,010,001,2024-06-04_17h24.43.597,ps,2023.2.3,30.00485478404752,2024-06-04 17h24.53.279787 -0400,
mini_blocks/2d_single_mini_block_1.xlsx,"*Break*
Entering the 2D SIMULTANEOUS block
Rotation is Counter/Clockwise
Press <4> to continue",0,1,0,2D,None,0,False,False,None,obj1,100,None,output_pairs/2D_0/2D_0_obj_15_100deg.png,None,2013,comma,0,2,2,2,0,12,12,12,,,,,,,,,,,,,481.2957738999976,,,,,,,,,,,,,,,,,,,,,,,,,,,,,,,,,,,,,481.25902599998517,481.2957738999976,482.22525550000137,482.22525550000137,482.32515930000227,483.95900859998073,comma,1,1.7219631999614649,None,483.9592349000159,483.9915544000105,483.9915544000105,,,485.96465089998674,4.0,['rshift'],[0.6122020999900997],[None],485.96480319998227,485.996244799986,487.9629459999851,,,,,,,,,,,,,,,,,,,,,,,,,,,,,,,,,,,,,,,,,,,,,,,,,,,,,,,,,,,,,,,,,,,,,,,,,,,,,,,,,,,,010,001,2024-06-04_17h24.43.597,ps,2023.2.3,30.00485478404752,2024-06-04 17h24.53.279787 -0400,
mini_blocks/2d_single_mini_block_1.xlsx,"*Break*
Entering the 2D SIMULTANEOUS block
Rotation is Counter/Clockwise
Press <4> to continue",0,1,0,2D,None,120,True,False,None,obj6,160,280,output_pairs/2D_120m/2D_120m_obj_6_160_to_280deg.png,None,1378,period,0,2,2,2,0,13,13,13,,,,,,,,,,,,,487.9983774999855,,,,,,,,,,,,,,,,,,,,,,,,,,,,,,,,,,,,,487.9631389999995,487.9983774999855,488.9687165999785,488.9687165999785,489.00227410002844,492.4967134000035,period,1,3.507541500031948,None,492.4969074000255,492.5293934000074,492.5293934000074,,,494.5267404000042,3.0,['slash'],[0.6825489000184461],[None],494.52689729997655,494.55813640000997,496.5251591000124,,,,,,,,,,,,,,,,,,,,,,,,,,,,,,,,,,,,,,,,,,,,,,,,,,,,,,,,,,,,,,,,,,,,,,,,,,,,,,,,,,,,010,001,2024-06-04_17h24.43.597,ps,2023.2.3,30.00485478404752,2024-06-04 17h24.53.279787 -0400,
mini_blocks/2d_single_mini_block_1.xlsx,"*Break*
Entering the 2D SIMULTANEOUS block
Rotation is Counter/Clockwise
Press <4> to continue",0,1,0,2D,None,60,False,False,None,obj9,140,200,output_pairs/2D_60/2D_60_obj_9_140_to_200deg.png,None,957,comma,0,2,2,2,0,14,14,14,,,,,,,,,,,,,496.56202930002473,,,,,,,,,,,,,,,,,,,,,,,,,,,,,,,,,,,,,496.52547230001073,496.56202930002473,497.52515250002034,497.52515250002034,497.59178429999156,500.9258201000048,period,0,3.390455499989912,None,500.92609890003223,500.9581688999897,500.9581688999897,502.9584574000328,502.9584574000328,502.92879919998813,3.0,['slash'],[0.5496815000078641],[None],502.9289496000274,502.9584574000328,504.9357657000073,,,,,,,,,,,,,,,,,,,,,,,,,,,,,,,,,,,,,,,,,,,,,,,,,,,,,,,,,,,,,,,,,,,,,,,,,,,,,,,,,,,,010,001,2024-06-04_17h24.43.597,ps,2023.2.3,30.00485478404752,2024-06-04 17h24.53.279787 -0400,
mini_blocks/2d_single_mini_block_1.xlsx,"*Break*
Entering the 2D SIMULTANEOUS block
Rotation is Counter/Clockwise
Press <4> to continue",0,1,0,2D,None,60,True,False,None,obj7,260,320,output_pairs/2D_60m/2D_60m_obj_7_260_to_320deg.png,None,571,period,0,2,2,2,0,15,15,15,,,,,,,,,,,,,504.9784333999851,,,,,,,,,,,,,,,,,,,,,,,,,,,,,,,,,,,,,504.93599199998425,504.9784333999851,505.9252604999929,505.9252604999929,505.9920124000055,509.3257845999906,period,1,3.3672000999795273,None,509.3259904999868,509.3582029999816,509.3582029999816,,,511.33137989998795,3.0,['slash'],[0.4704040000215173],[None],511.33152790000895,511.3586948000011,513.3259206999792,513.3586446000263,,,,,,,,,,,,,,,,,,,,,,,,,,,,,,,,,,,,,,,,,,,,,,,,,,,,,,,,,,,,,,,,,,,,,,,,,,,,,,,,,,,010,001,2024-06-04_17h24.43.597,ps,2023.2.3,30.00485478404752,2024-06-04 17h24.53.279787 -0400,
mini_blocks/2d_single_mini_block_1.xlsx,"*Break*
Entering the 2D SIMULTANEOUS block
Rotation is Counter/Clockwise
Press <4> to continue",0,1,0,,,,,,,,,,,,,,0,2,2,2,,,,,,,,,,,,,,,,,,,,,,,,,,,,,,,,,,,,,,,,,,,,,,,,,,,,,,,,,,,,,,,,,,,,,,,,,,,,,,513.3323754000012,513.3586446000263,513.3586446000263,521.3294967000256,4.0,['rshift'],[3.149235300021246],[None],521.3296368999872,521.32965780003,None,,,,,,,,,,,,,,,521.3588596999762,521.3588596999762,,,,,,,,,,,,,,,,,,,,,,,,,,,,,,,,,,,,,,,,,,,,,,,,,,,,,,,,010,001,2024-06-04_17h24.43.597,ps,2023.2.3,30.00485478404752,2024-06-04 17h24.53.279787 -0400,
mini_blocks/3dp_single_mini_block_1.xlsx,"*Break*
Entering the 3D SIMULTANEOUS block
Rotation is Counter/Clockwise
Press <4> to continue",0,1,1,3D,p,120,False,False,None,obj7,160,280,output_pairs/3Dp_120/3Dp_120_obj_7_160_to_280deg.png,None,708,comma,0,3,3,3,0,0,0,0,,,,,,,,,,,,,523.5733814000268,,,,,,,,,,,,,,,,,,,,,,,,,,,,,,521.3297764000017,521.3588596999762,521.3588596999762,523.5261293000076,rshift,2.1652237999951467,None,523.536023600027,523.5733814000268,524.525313900027,524.525313900027,524.6015385999926,528.7299908000277,period,0,4.190318799985107,None,528.7302772999974,528.7626212000032,528.7626212000032,,,530.7603264999925,3.0,['slash'],[0.801659099990502],[None],530.7605831000255,530.7917698000092,532.7632537999889,,,,,,,,,,,,,,,,,,,,,,,,,,,,,,,,,,,,,,,,,,,,,,,,,,,,,,,,,,,,,,,,,,,,,,,,,,,,,,,,,,,,010,001,2024-06-04_17h24.43.597,ps,2023.2.3,30.00485478404752,2024-06-04 17h24.53.279787 -0400,
mini_blocks/3dp_single_mini_block_1.xlsx,"*Break*
Entering the 3D SIMULTANEOUS block
Rotation is Counter/Clockwise
Press <4> to continue",0,1,1,3D,p,60,False,False,None,obj4,280,340,output_pairs/3Dp_60/3Dp_60_obj_4_280_to_340deg.png,None,1619,comma,0,3,3,3,0,1,1,1,,,,,,,,,,,,,532.801140399999,,,,,,,,,,,,,,,,,,,,,,,,,,,,,,,,,,,,,532.7634317000047,532.801140399999,533.7298350000056,533.7298350000056,533.8348457000102,538.2299495000043,period,0,4.481670799956191,None,538.2301536999876,538.2626317000249,538.2626317000249,,,540.2603882999974,None,None,,,540.2604810000048,540.2917646000278,542.2586418000283,,,,,,,,,,,,,,,,,,,,,,,,,,,,,,,,,,,,,,,,,,,,,,,,,,,,,,,,,,,,,,,,,,,,,,,,,,,,,,,,,,,,010,001,2024-06-04_17h24.43.597,ps,2023.2.3,30.00485478404752,2024-06-04 17h24.53.279787 -0400,
mini_blocks/3dp_single_mini_block_1.xlsx,"*Break*
Entering the 3D SIMULTANEOUS block
Rotation is Counter/Clockwise
Press <4> to continue",0,1,1,3D,p,180,False,False,None,obj8,40,220,output_pairs/3Dp_180/3Dp_180_obj_8_40_to_220deg.png,None,767,comma,0,3,3,3,0,2,2,2,,,,,,,,,,,,,542.2966817999841,,,,,,,,,,,,,,,,,,,,,,,,,,,,,,,,,,,,,542.2588795999764,542.2966817999841,543.2299391999841,543.2299391999841,543.2962731000152,547.1592361999792,period,0,3.901597900025081,None,547.1595211999957,547.1918701999821,547.1918701999821,,,549.1649049000116,3.0,"['slash', 'slash']","[0.6674231999786571, 1.5168769999872893]","[None, None]",549.1650546999881,549.1964543000213,551.1631414000294,,,,,,,,,,,,,,,,,,,,,,,,,,,,,,,,,,,,,,,,,,,,,,,,,,,,,,,,,,,,,,,,,,,,,,,,,,,,,,,,,,,,010,001,2024-06-04_17h24.43.597,ps,2023.2.3,30.00485478404752,2024-06-04 17h24.53.279787 -0400,
mini_blocks/3dp_single_mini_block_1.xlsx,"*Break*
Entering the 3D SIMULTANEOUS block
Rotation is Counter/Clockwise
Press <4> to continue",0,1,1,3D,p,120,True,False,None,obj1,200,320,output_pairs/3Dp_120m/3Dp_120m_obj_10_200_to_320deg.png,None,2138,period,0,3,3,3,0,3,3,3,,,,,,,,,,,,,551.2176646000007,,,,,,,,,,,,,,,,,,,,,,,,,,,,,,,,,,,,,551.163364499982,551.2176646000007,552.1588094999897,552.1588094999897,552.22556240001,556.2300715000019,period,1,4.0540232000057586,None,556.2302733000251,556.2588153000106,556.2588153000106,558.2585752999876,558.2585752999876,558.2291150999954,3.0,['slash'],[0.6171046000090428],[None],558.2292644000263,558.2585752999876,560.2260064000147,560.2630101999966,,,,,,,,,,,,,,,,,,,,,,,,,,,,,,,,,,,,,,,,,,,,,,,,,,,,,,,,,,,,,,,,,,,,,,,,,,,,,,,,,,,010,001,2024-06-04_17h24.43.597,ps,2023.2.3,30.00485478404752,2024-06-04 17h24.53.279787 -0400,
mini_blocks/3dp_single_mini_block_1.xlsx,"*Break*
Entering the 3D SIMULTANEOUS block
Rotation is Counter/Clockwise
Press <4> to continue",0,1,1,3D,p,0,True,False,None,obj5,180,None,output_pairs/3Dp_0m/3Dp_0m_obj_5_180deg.png,None,1710,period,0,3,3,3,0,4,4,4,,,,,,,,,,,,,560.2630101999966,,,,,,,,,,,,,,,,,,,,,,,,,,,,,,,,,,,,,560.2261829000199,560.2630101999966,561.2300036000088,561.2300036000088,561.2629413999966,563.663715200033,period,1,2.422480099950917,None,563.6639422000153,563.6962329000235,563.6962329000235,,,565.6935759999906,3.0,['slash'],[0.7720568000222556],[None],565.6937441999908,565.7252139999764,567.6967360000126,,,,,,,,,,,,,,,,,,,,,,,,,,,,,,,,,,,,,,,,,,,,,,,,,,,,,,,,,,,,,,,,,,,,,,,,,,,,,,,,,,,,010,001,2024-06-04_17h24.43.597,ps,2023.2.3,30.00485478404752,2024-06-04 17h24.53.279787 -0400,
mini_blocks/3dp_single_mini_block_1.xlsx,"*Break*
Entering the 3D SIMULTANEOUS block
Rotation is Counter/Clockwise
Press <4> to continue",0,1,1,3D,p,0,True,False,None,sm1,300,None,output_pairs/3Dp_0m/3Dp_0m_sm_1_300deg.png,None,1702,period,0,3,3,3,0,5,5,5,,,,,,,,,,,,,567.7346445000148,,,,,,,,,,,,,,,,,,,,,,,,,,,,,,,,,,,,,567.6969219000312,567.7346445000148,568.6691224999959,568.6691224999959,568.7351991999894,570.8595542000257,period,1,2.167320300010033,None,570.8597613000311,570.8922060999903,570.8922060999903,572.8966690999805,572.8966690999805,572.8628155000042,4.0,['rshift'],[0.7910885000019334],[None],572.862965999986,572.8966690999805,574.8632316000294,,,,,,,,,,,,,,,,,,,,,,,,,,,,,,,,,,,,,,,,,,,,,,,,,,,,,,,,,,,,,,,,,,,,,,,,,,,,,,,,,,,,010,001,2024-06-04_17h24.43.597,ps,2023.2.3,30.00485478404752,2024-06-04 17h24.53.279787 -0400,
mini_blocks/3dp_single_mini_block_1.xlsx,"*Break*
Entering the 3D SIMULTANEOUS block
Rotation is Counter/Clockwise
Press <4> to continue",0,1,1,3D,p,180,False,False,None,sm5,240,60,output_pairs/3Dp_180/3Dp_180_sm_5_240_to_60deg.png,None,766,comma,0,3,3,3,0,6,6,6,,,,,,,,,,,,,574.8987757000141,,,,,,,,,,,,,,,,,,,,,,,,,,,,,,,,,,,,,574.8634276000084,574.8987757000141,575.858845699986,575.858845699986,575.9256622000248,584.8259730000282,None,0,,,584.8261381000048,584.8586115000071,584.8586115000071,586.8634010999813,586.8634010999813,586.8337484999793,None,None,,,586.8338265999919,586.8634010999813,588.8633900000132,,,,,,,,,,,,,,,,,,,,,,,,,,,,,584.8586115000071,584.8586115000071,,,,,,,,,,,,,,,,,,,,,,,,,,,,,,,,,,,,,,,,,,,,,,,,,,,,,,010,001,2024-06-04_17h24.43.597,ps,2023.2.3,30.00485478404752,2024-06-04 17h24.53.279787 -0400,
mini_blocks/3dp_single_mini_block_1.xlsx,"*Break*
Entering the 3D SIMULTANEOUS block
Rotation is Counter/Clockwise
Press <4> to continue",0,1,1,3D,p,0,True,False,None,obj1,280,None,output_pairs/3Dp_0m/3Dp_0m_obj_12_280deg.png,None,1716,period,0,3,3,3,0,7,7,7,,,,,,,,,,,,,588.9017546999967,,,,,,,,,,,,,,,,,,,,,,,,,,,,,,,,,,,,,588.8636144999764,588.9017546999967,589.863291000016,589.863291000016,589.9256867999793,591.459452399984,period,1,1.564807299990207,None,591.4596638000221,591.4920495999977,591.4920495999977,593.4921670000185,593.4921670000185,593.4626958000008,4.0,['rshift'],[0.7272153000230901],[None],593.4628572000074,593.4921670000185,595.4635640999768,,,,,,,,,,,,,,,,,,,,,,,,,,,,,,,,,,,,,,,,,,,,,,,,,,,,,,,,,,,,,,,,,,,,,,,,,,,,,,,,,,,,010,001,2024-06-04_17h24.43.597,ps,2023.2.3,30.00485478404752,2024-06-04 17h24.53.279787 -0400,
mini_blocks/3dp_single_mini_block_1.xlsx,"*Break*
Entering the 3D SIMULTANEOUS block
Rotation is Counter/Clockwise
Press <4> to continue",0,1,1,3D,p,120,True,False,None,obj2,80,200,output_pairs/3Dp_120m/3Dp_120m_obj_2_80_to_200deg.png,None,2123,period,0,3,3,3,0,8,8,8,,,,,,,,,,,,,595.501816199976,,,,,,,,,,,,,,,,,,,,,,,,,,,,,,,,,,,,,595.4638870999916,595.501816199976,596.4635205999948,596.4635205999948,596.5297272999887,599.6262180000194,period,1,3.156153300020378,None,599.6264249000233,599.6588418000028,599.6588418000028,,,601.6319352000137,3.0,['slash'],[0.705054099962581],[None],601.6321119000204,601.6634820000036,603.6266651999904,,,,,,,,,,,,,,,,,,,,,,,,,,,,,,,,,,,,,,,,,,,,,,,,,,,,,,,,,,,,,,,,,,,,,,,,,,,,,,,,,,,,010,001,2024-06-04_17h24.43.597,ps,2023.2.3,30.00485478404752,2024-06-04 17h24.53.279787 -0400,
mini_blocks/3dp_single_mini_block_1.xlsx,"*Break*
Entering the 3D SIMULTANEOUS block
Rotation is Counter/Clockwise
Press <4> to continue",0,1,1,3D,p,180,False,False,None,obj1,40,220,output_pairs/3Dp_180/3Dp_180_obj_1_40_to_220deg.png,None,748,comma,0,3,3,3,0,9,9,9,,,,,,,,,,,,,603.6685152000282,,,,,,,,,,,,,,,,,,,,,,,,,,,,,,,,,,,,,603.6269038000028,603.6685152000282,604.6257439000183,604.6257439000183,604.6924339000252,608.3930691999849,comma,1,3.745987400005106,None,608.3932760999887,608.425349600031,608.425349600031,,,610.3985056999954,3.0,['slash'],[0.7865699999965727],[None],610.398656299978,610.4258141000173,612.3928043000051,612.4299413000117,,,,,,,,,,,,,,,,,,,,,,,,,,,,,,,,,,,,,,,,,,,,,,,,,,,,,,,,,,,,,,,,,,,,,,,,,,,,,,,,,,,010,001,2024-06-04_17h24.43.597,ps,2023.2.3,30.00485478404752,2024-06-04 17h24.53.279787 -0400,
mini_blocks/3dp_single_mini_block_1.xlsx,"*Break*
Entering the 3D SIMULTANEOUS block
Rotation is Counter/Clockwise
Press <4> to continue",0,1,1,3D,p,60,True,False,None,obj1,140,200,output_pairs/3Dp_60m/3Dp_60m_obj_10_140_to_200deg.png,None,859,period,0,3,3,3,0,10,10,10,,,,,,,,,,,,,612.4299413000117,,,,,,,,,,,,,,,,,,,,,,,,,,,,,,,,,,,,,612.3929769999813,612.4299413000117,613.4026731000049,613.4026731000049,613.4353459000122,614.7598539000028,comma,0,1.3533290000050329,None,614.7601182999788,614.7961972000194,614.7961972000194,,,616.7942182000261,4.0,['rshift'],[0.8395703000132926],[None],616.7943893999909,616.8252397000324,618.7636097000213,,,,,,,,,,,,,,,,,,,,,,,,,,,,,,,,,,,,,,,,,,,,,,,,,,,,,,,,,,,,,,,,,,,,,,,,,,,,,,,,,,,,010,001,2024-06-04_17h24.43.597,ps,2023.2.3,30.00485478404752,2024-06-04 17h24.53.279787 -0400,
mini_blocks/3dp_single_mini_block_1.xlsx,"*Break*
Entering the 3D SIMULTANEOUS block
Rotation is Counter/Clockwise
Press <4> to continue",0,1,1,3D,p,0,False,False,None,obj4,80,None,output_pairs/3Dp_0/3Dp_0_obj_4_80deg.png,None,2168,comma,0,3,3,3,0,11,11,11,,,,,,,,,,,,,618.8007045999984,,,,,,,,,,,,,,,,,,,,,,,,,,,,,,,,,,,,,618.7638923000195,618.8007045999984,619.7693060000311,619.7693060000311,619.8016267999774,621.3596919000265,comma,1,1.5782331000082195,None,621.3599019999965,621.3921686999965,621.3921686999965,623.39680029999,623.39680029999,623.3627321000095,4.0,['rshift'],[0.7490410000318661],[None],623.3628836999997,623.39680029999,625.3637450999813,,,,,,,,,,,,,,,,,,,,,,,,,,,,,,,,,,,,,,,,,,,,,,,,,,,,,,,,,,,,,,,,,,,,,,,,,,,,,,,,,,,,010,001,2024-06-04_17h24.43.597,ps,2023.2.3,30.00485478404752,2024-06-04 17h24.53.279787 -0400,
mini_blocks/3dp_single_mini_block_1.xlsx,"*Break*
Entering the 3D SIMULTANEOUS block
Rotation is Counter/Clockwise
Press <4> to continue",0,1,1,3D,p,60,True,False,None,obj1,140,200,output_pairs/3Dp_60m/3Dp_60m_obj_10_140_to_200deg.png,None,859,period,0,3,3,3,0,12,12,12,,,,,,,,,,,,,625.4012464000261,,,,,,,,,,,,,,,,,,,,,,,,,,,,,,,,,,,,,625.3639320000075,625.4012464000261,626.3693765000207,626.3693765000207,626.3923269999796,631.059867199976,period,1,4.67462920001708,None,631.060115500004,631.0923195999931,631.0923195999931,,,633.0652064000024,3.0,['slash'],[1.5188927000272088],[None],633.0653558999766,633.0968257000204,635.0925996000296,,,,,,,,,,,,,,,,,,,,,,,,,,,,,,,,,,,,,,,,,,,,,,,,,,,,,,,,,,,,,,,,,,,,,,,,,,,,,,,,,,,,010,001,2024-06-04_17h24.43.597,ps,2023.2.3,30.00485478404752,2024-06-04 17h24.53.279787 -0400,
mini_blocks/3dp_single_mini_block_1.xlsx,"*Break*
Entering the 3D SIMULTANEOUS block
Rotation is Counter/Clockwise
Press <4> to continue",0,1,1,3D,p,0,False,False,None,obj1,280,None,output_pairs/3Dp_0/3Dp_0_obj_14_280deg.png,None,2145,comma,0,3,3,3,0,13,13,13,,,,,,,,,,,,,635.128911399981,,,,,,,,,,,,,,,,,,,,,,,,,,,,,,,,,,,,,635.0928843999864,635.128911399981,636.0693523000227,636.0693523000227,636.1352489999845,637.5930888000294,comma,1,1.518317699956242,None,637.5932969999849,637.6254921000218,637.6254921000218,639.6302889999934,639.6302889999934,639.5962336999946,4.0,['rshift'],[0.5143777999910526],[None],639.5964055000222,639.6302889999934,641.6363966999925,,,,,,,,,,,,,,,,,,,,,,,,,,,,,,,,,,,,,,,,,,,,,,,,,,,,,,,,,,,,,,,,,,,,,,,,,,,,,,,,,,,,010,001,2024-06-04_17h24.43.597,ps,2023.2.3,30.00485478404752,2024-06-04 17h24.53.279787 -0400,
mini_blocks/3dp_single_mini_block_1.xlsx,"*Break*
Entering the 3D SIMULTANEOUS block
Rotation is Counter/Clockwise
Press <4> to continue",0,1,1,3D,p,60,True,False,None,obj1,200,260,output_pairs/3Dp_60m/3Dp_60m_obj_15_200_to_260deg.png,None,846,period,0,3,3,3,0,14,14,14,,,,,,,,,,,,,641.6758337999927,,,,,,,,,,,,,,,,,,,,,,,,,,,,,,,,,,,,,641.6365884999977,641.6758337999927,642.5925805000006,642.5925805000006,642.6963535000104,646.1931711999932,period,1,3.59498649998568,None,646.1933822000283,646.2256900999928,646.2256900999928,,,648.1985220999923,3.0,['slash'],[0.6579443999798968],[None],648.1986767000053,648.2302277000272,650.2301752999774,,,,,,,,,,,,,,,,,,,,,,,,,,,,,,,,,,,,,,,,,,,,,,,,,,,,,,,,,,,,,,,,,,,,,,,,,,,,,,,,,,,,010,001,2024-06-04_17h24.43.597,ps,2023.2.3,30.00485478404752,2024-06-04 17h24.53.279787 -0400,
mini_blocks/3dp_single_mini_block_1.xlsx,"*Break*
Entering the 3D SIMULTANEOUS block
Rotation is Counter/Clockwise
Press <4> to continue",0,1,1,3D,p,0,True,False,None,obj4,80,None,output_pairs/3Dp_0m/3Dp_0m_obj_4_80deg.png,None,1727,period,0,3,3,3,0,15,15,15,,,,,,,,,,,,,650.2697765000048,,,,,,,,,,,,,,,,,,,,,,,,,,,,,,,,,,,,,650.230351199978,650.2697765000048,651.192623400013,651.192623400013,651.2685543000116,653.3598258999991,comma,0,2.1397313000052236,None,653.360034900019,653.3923297000001,653.3923297000001,655.3969481000095,655.3969481000095,655.3630130999954,None,None,,,655.3631044999929,655.3969481000095,657.3698472999968,,,,,,,,,,,,,,,,,,,,,,,,,,,,,,,,,,,,,,,,,,,,,,,,,,,,,,,,,,,,,,,,,,,,,,,,,,,,,,,,,,,,010,001,2024-06-04_17h24.43.597,ps,2023.2.3,30.00485478404752,2024-06-04 17h24.53.279787 -0400,
mini_blocks/3dp_single_mini_block_1.xlsx,"*Break*
Entering the 3D SIMULTANEOUS block
Rotation is Counter/Clockwise
Press <4> to continue",0,1,1,,,,,,,,,,,,,,0,3,3,3,,,,,,,,,,,,,,,,,,,,,,,,,,,,,,,,,,,,,,,,,,,,,,,,,,,,,,,,,,,,,,,,,,,,,,,,,,,,,,657.3794136000215,657.4032114000292,657.4032114000292,665.3648557999986,4.0,['rshift'],[1.601034699997399],[None],665.3649932999979,959.995099199994,rshift,,,,,,,,,,,,,,,,,,,665.3963277000003,665.3963277000003,294.58370399998967,None,,,,,,,,,,,,,,,,,,,,,,,,,,,,,,,,,,,,,,,,,,,,,,,,,,010,001,2024-06-04_17h24.43.597,ps,2023.2.3,30.00485478404752,2024-06-04 17h24.53.279787 -0400,
mini_blocks/2d_wm_mini_block_2.xlsx,"*Break*
Entering the 2D WORKING MEMORY block
Rotation is Counter/Clockwise
Press <4> to continue
               ",1,0,0,2D,None,180,False,True,12,obj1,240,60,output_pairs/2D_180_WM/2D_180_WM_12_1_obj_15_240deg.png,output_pairs/2D_180_WM/2D_180_WM_12_2_obj_15_60deg.png,708,comma,0,4,4,4,,,,,0,0,0,0,,,,,,,,,963.7674882999854,,,,,,,,,,,,,,,,,,,,,,,,,,,,,,959.9954757000087,960.0313968000119,960.0313968000119,963.7047402000171,rshift,3.653432500024792,None,,,,,,,,,,,971.6284463999909,971.6601086999872,971.6601086999872,,,973.6333067999803,3.0,['slash'],[0.9033127999864519],[None],973.6335524999886,973.6648775999784,975.6607250000234,,,,,,,,,,,,,963.7177158999839,963.7674882999854,964.7272425999981,964.7938775999937,968.731488600024,968.731488600024,969.7316406000173,969.7316406000173,969.7316406000173,971.6279719999875,period,0,1.8636953000095673,None,,,,,,,,,,,,,,,,,,,,,,,,,,,,,,,,,,,,,,,,,,,,,,,,,,,,,,,,,,010,001,2024-06-04_17h24.43.597,ps,2023.2.3,30.00485478404752,2024-06-04 17h24.53.279787 -0400,
mini_blocks/2d_wm_mini_block_2.xlsx,"*Break*
Entering the 2D WORKING MEMORY block
Rotation is Counter/Clockwise
Press <4> to continue
               ",1,0,0,2D,None,60,True,True,24,obj1,280,220,output_pairs/2D_60_M_WM/2D_60_M_WM_24_1_obj_14_280deg.png,output_pairs/2D_60_M_WM/2D_60_M_WM_24_2_obj_14_220deg.png,634,period,0,4,4,4,,,,,0,1,1,1,,,,,,,,,975.7096448999946,,,,,,,,,,,,,,,,,,,,,,,,,,,,,,,,,,,,,,,,,,,,,,,982.761378300027,982.7935872999951,982.7935872999951,984.7937474999926,984.7937474999926,984.764127500006,3.0,['slash'],[0.4441668000072241],[None],984.7643270000117,984.7937474999926,986.7708768000011,,,,,,,,,,,,,975.6609778000275,975.7096448999946,976.6605329000158,976.7271365000051,980.6606358999852,980.6272442999762,981.6649688000325,981.6649688000325,981.631623400026,982.7611692000064,period,1,1.0757758999825455,None,,,,,,,,,,,,,,,,,,,,,,,,,,,,,,,,,,,,,,,,,,,,,,,,,,,,,,,,,,010,001,2024-06-04_17h24.43.597,ps,2023.2.3,30.00485478404752,2024-06-04 17h24.53.279787 -0400,
mini_blocks/2d_wm_mini_block_2.xlsx,"*Break*
Entering the 2D WORKING MEMORY block
Rotation is Counter/Clockwise
Press <4> to continue
               ",1,0,0,2D,None,0,False,True,8,obj7,120,120,output_pairs/2D_0_WM/2D_0_WM_08_1_obj_7_120deg.png,output_pairs/2D_0_WM/2D_0_WM_08_2_obj_7_120deg.png,192,comma,0,4,4,4,,,,,0,2,2,2,,,,,,,,,986.8211776000098,,,,,,,,,,,,,,,,,,,,,,,,,,,,,,,,,,,,,,,,,,,,,,,994.0325942999916,994.0650390000083,994.0650390000083,,,996.0622080999892,3.0,['slash'],[0.643280100019183],[None],996.0623684999882,996.0936768000247,998.0604368000058,,,,,,,,,,,,,986.7710512999911,986.8211776000098,987.7606447000289,987.8273329000222,991.7602772000246,991.7937189000077,992.7650628000265,992.7650628000265,992.7940708000096,994.0324101999868,comma,1,1.239073000033386,None,,,,,,,,,,,,,,,,,,,,,,,,,,,,,,,,,,,,,,,,,,,,,,,,,,,,,,,,,,010,001,2024-06-04_17h24.43.597,ps,2023.2.3,30.00485478404752,2024-06-04 17h24.53.279787 -0400,
mini_blocks/2d_wm_mini_block_2.xlsx,"*Break*
Entering the 2D WORKING MEMORY block
Rotation is Counter/Clockwise
Press <4> to continue
               ",1,0,0,2D,None,180,False,True,27,obj3,240,60,output_pairs/2D_180_WM/2D_180_WM_27_1_obj_3_240deg.png,output_pairs/2D_180_WM/2D_180_WM_27_2_obj_3_60deg.png,714,comma,0,4,4,4,,,,,0,3,3,3,,,,,,,,,998.1109611000284,,,,,,,,,,,,,,,,,,,,,,,,,,,,,,,,,,,,,,,,,,,,,,,1005.2281532000052,1005.2604011999792,1005.2604011999792,1007.2604784999858,1007.2604784999858,1007.2311006999807,3.0,['slash'],[0.8238553000264801],[None],1007.2312641000026,1007.2604784999858,1009.2319038999849,,,,,,,,,,,,,998.0607017999864,998.1109611000284,999.031879200018,999.1318525000243,1003.0649840999977,1003.0649840999977,1004.0317025000113,1004.0317025000113,1004.0650166000123,1005.2279443999869,comma,1,1.1889413999742828,None,,,,,,,,,,,,,,,,,,,,,,,,,,,,,,,,,,,,,,,,,,,,,,,,,,,,,,,,,,010,001,2024-06-04_17h24.43.597,ps,2023.2.3,30.00485478404752,2024-06-04 17h24.53.279787 -0400,
mini_blocks/2d_wm_mini_block_2.xlsx,"*Break*
Entering the 2D WORKING MEMORY block
Rotation is Counter/Clockwise
Press <4> to continue
               ",1,0,0,2D,None,0,True,True,23,obj9,80,80,output_pairs/2D_0_M_WM/2D_0_M_WM_23_1_obj_9_80deg.png,output_pairs/2D_0_M_WM/2D_0_M_WM_23_2_obj_9_80deg.png,700,period,0,4,4,4,,,,,0,4,4,4,,,,,,,,,1009.2849165999796,,,,,,,,,,,,,,,,,,,,,,,,,,,,,,,,,,,,,,,,,,,,,,,1016.4661683000159,1016.4984336000052,1016.4984336000052,,,1018.4952252000221,3.0,['slash'],[0.521314799960237],[None],1018.49538019998,1018.5270880000317,1020.498625600012,,,,,,,,,,,,,1009.2320903000073,1009.2849165999796,1010.2377194000292,1010.3046200000099,1014.2651488999836,1014.2317642000271,1015.2318694000132,1015.2318694000132,1015.2318694000132,1016.465798899997,period,1,1.2132545000058599,None,,,,,,,,,,,,,,,,,,,,,,,,,,,,,,,,,,,,,,,,,,,,,,,,,,,,,,,,,,010,001,2024-06-04_17h24.43.597,ps,2023.2.3,30.00485478404752,2024-06-04 17h24.53.279787 -0400,
mini_blocks/2d_wm_mini_block_2.xlsx,"*Break*
Entering the 2D WORKING MEMORY block
Rotation is Counter/Clockwise
Press <4> to continue
               ",1,0,0,2D,None,0,False,True,22,obj1,200,200,output_pairs/2D_0_WM/2D_0_WM_22_1_obj_13_200deg.png,output_pairs/2D_0_WM/2D_0_WM_22_2_obj_13_200deg.png,210,comma,0,4,4,4,,,,,0,5,5,5,,,,,,,,,1020.5487067999784,,,,,,,,,,,,,,,,,,,,,,,,,,,,,,,,,,,,,,,,,,,,,,,1027.499199700018,1027.5316680999822,1027.5316680999822,,,1029.5293700000038,3.0,['slash'],[0.640794700011611],[None],1029.5295384000055,1029.5604223000119,1031.531993600016,,,,,,,,,,,,,1020.4988143999944,1020.5487067999784,1021.4709637999767,1021.5709386999952,1025.494165799988,1025.494165799988,1026.494136399997,1026.494136399997,1026.494136399997,1027.49899990001,comma,1,0.975107999984175,None,,,,,,,,,,,,,,,,,,,,,,,,,,,,,,,,,,,,,,,,,,,,,,,,,,,,,,,,,,010,001,2024-06-04_17h24.43.597,ps,2023.2.3,30.00485478404752,2024-06-04 17h24.53.279787 -0400,
mini_blocks/2d_wm_mini_block_2.xlsx,"*Break*
Entering the 2D WORKING MEMORY block
Rotation is Counter/Clockwise
Press <4> to continue
               ",1,0,0,2D,None,120,True,True,26,obj1,60,180,output_pairs/2D_120_M_WM/2D_120_M_WM_26_1_obj_12_60deg.png,output_pairs/2D_120_M_WM/2D_120_M_WM_26_2_obj_12_180deg.png,226,period,0,4,4,4,,,,,0,6,6,6,,,,,,,,,1031.586389700009,,,,,,,,,,,,,,,,,,,,,,,,,,,,,,,,,,,,,,,,,,,,,,,1038.7994011000264,1038.8317954000086,1038.8317954000086,,,1040.8291850999813,3.0,['slash'],[0.5402948000119068],[None],1040.8293448000331,1040.8604682000005,1042.8319653000217,,,,,,,,,,,,,1031.5321645999793,1031.586389700009,1032.5044088999857,1032.5940822000266,1036.5271658999845,1036.5271658999845,1037.5319558000192,1037.5319558000192,1037.5319558000192,1038.7991914000013,period,1,1.2405512000550516,None,,,,,,,,,,,,,,,,,,,,,,,,,,,,,,,,,,,,,,,,,,,,,,,,,,,,,,,,,,010,001,2024-06-04_17h24.43.597,ps,2023.2.3,30.00485478404752,2024-06-04 17h24.53.279787 -0400,
mini_blocks/2d_wm_mini_block_2.xlsx,"*Break*
Entering the 2D WORKING MEMORY block
Rotation is Counter/Clockwise
Press <4> to continue
               ",1,0,0,2D,None,180,True,True,23,obj1,160,340,output_pairs/2D_180_M_WM/2D_180_M_WM_23_1_obj_10_160deg.png,output_pairs/2D_180_M_WM/2D_180_M_WM_23_2_obj_10_340deg.png,437,period,0,4,4,4,,,,,0,7,7,7,,,,,,,,,1042.8835874000215,,,,,,,,,,,,,,,,,,,,,,,,,,,,,,,,,,,,,,,,,,,,,,,1050.9953148000059,1051.0270382000017,1051.0270382000017,1053.0274063000106,1053.0274063000106,1052.9976757999975,3.0,['slash'],[1.0409458999638446],[None],1052.9978397000232,1053.0274063000106,1055.0046114000143,,,,,,,,,,,,,1042.832165699976,1042.8835874000215,1043.8379996999865,1043.9045144999982,1047.8652075999998,1047.7985393999843,1048.8275558000314,1048.8275558000314,1048.8275558000314,1050.9951044000336,period,1,2.1608580999891274,None,,,,,,,,,,,,,,,,,,,,,,,,,,,,,,,,,,,,,,,,,,,,,,,,,,,,,,,,,,010,001,2024-06-04_17h24.43.597,ps,2023.2.3,30.00485478404752,2024-06-04 17h24.53.279787 -0400,
mini_blocks/2d_wm_mini_block_2.xlsx,"*Break*
Entering the 2D WORKING MEMORY block
Rotation is Counter/Clockwise
Press <4> to continue
               ",1,0,0,2D,None,120,True,True,2,obj2,240,0,output_pairs/2D_120_M_WM/2D_120_M_WM_02_1_obj_2_240deg.png,output_pairs/2D_120_M_WM/2D_120_M_WM_02_2_obj_2_0deg.png,240,period,0,4,4,4,,,,,0,8,8,8,,,,,,,,,1055.0653024999774,,,,,,,,,,,,,,,,,,,,,,,,,,,,,,,,,,,,,,,,,,,,,,,1062.3328630999895,1062.3653668999905,1062.3653668999905,,,1064.3624738000217,3.0,['slash'],[0.5105947999982163],[None],1064.3626454999903,1064.3938401999767,1066.3607534000184,,,,,,,,,,,,,1055.0047906999825,1055.0653024999774,1055.9984591000248,1056.0941419000155,1060.0271794000291,1060.0271794000291,1061.027460900019,1061.027460900019,1061.027460900019,1062.332661900029,period,1,1.2807940999628045,None,,,,,,,,,,,,,,,,,,,,,,,,,,,,,,,,,,,,,,,,,,,,,,,,,,,,,,,,,,010,001,2024-06-04_17h24.43.597,ps,2023.2.3,30.00485478404752,2024-06-04 17h24.53.279787 -0400,
mini_blocks/2d_wm_mini_block_2.xlsx,"*Break*
Entering the 2D WORKING MEMORY block
Rotation is Counter/Clockwise
Press <4> to continue
               ",1,0,0,2D,None,0,True,True,15,sm1,320,320,output_pairs/2D_0_M_WM/2D_0_M_WM_15_1_SM1_320deg.png,output_pairs/2D_0_M_WM/2D_0_M_WM_15_2_SM1_320deg.png,682,period,0,4,4,4,,,,,0,9,9,9,,,,,,,,,1066.4147244999767,,,,,,,,,,,,,,,,,,,,,,,,,,,,,,,,,,,,,,,,,,,,,,,1073.3329868,1073.365530900017,1073.365530900017,,,1075.36258429999,3.0,['slash'],[0.47015820001251996],[None],1075.3627435999806,1075.3939650999964,1077.3655118999886,,,,,,,,,,,,,1066.361061100033,1066.4147244999767,1067.332154600008,1067.4321501000086,1071.332011200022,1071.332011200022,1072.332079100015,1072.332079100015,1072.332079100015,1073.3327722999966,period,1,0.9676608000299893,None,,,,,,,,,,,,,,,,,,,,,,,,,,,,,,,,,,,,,,,,,,,,,,,,,,,,,,,,,,010,001,2024-06-04_17h24.43.597,ps,2023.2.3,30.00485478404752,2024-06-04 17h24.53.279787 -0400,
mini_blocks/2d_wm_mini_block_2.xlsx,"*Break*
Entering the 2D WORKING MEMORY block
Rotation is Counter/Clockwise
Press <4> to continue
               ",1,0,0,2D,None,180,True,True,15,obj1,120,300,output_pairs/2D_180_M_WM/2D_180_M_WM_15_1_obj_13_120deg.png,output_pairs/2D_180_M_WM/2D_180_M_WM_15_2_obj_13_300deg.png,431,period,0,4,4,4,,,,,0,10,10,10,,,,,,,,,1077.4162410999998,,,,,,,,,,,,,,,,,,,,,,,,,,,,,,,,,,,,,,,,,,,,,,,1084.3288459000178,1084.3609817000106,1084.3609817000106,1086.360794599983,1086.360794599983,1086.3311241000192,3.0,['slash'],[0.48275520000606775],[None],1086.3312768000178,1086.360794599983,1088.3280755000305,1088.3961828000029,,,,,,,,,,,,1077.3656955999904,1077.4162410999998,1078.3321334000211,1078.4379768000217,1082.3319721000153,1082.3319721000153,1083.338273100031,1083.338273100031,1083.338273100031,1084.3286020000232,period,1,0.9618014000006951,None,,,,,,,,,,,,,,,,,,,,,,,,,,,,,,,,,,,,,,,,,,,,,,,,,,,,,,,,,,010,001,2024-06-04_17h24.43.597,ps,2023.2.3,30.00485478404752,2024-06-04 17h24.53.279787 -0400,
mini_blocks/2d_wm_mini_block_2.xlsx,"*Break*
Entering the 2D WORKING MEMORY block
Rotation is Counter/Clockwise
Press <4> to continue
               ",1,0,0,2D,None,60,True,True,21,sm5,240,300,output_pairs/2D_60_M_WM/2D_60_M_WM_21_1_SM5_240deg.png,output_pairs/2D_60_M_WM/2D_60_M_WM_21_2_SM5_300deg.png,619,period,0,4,4,4,,,,,0,11,11,11,,,,,,,,,1088.3961828000029,,,,,,,,,,,,,,,,,,,,,,,,,,,,,,,,,,,,,,,,,,,,,,,1097.3285857000155,1097.360758900002,1097.360758900002,1099.360898200015,1099.360898200015,1099.3315045000054,3.0,['slash'],[0.9314993000007235],[None],1099.3316995999776,1099.360898200015,1101.3322752999957,,,,,,,,,,,,,1088.3282554000034,1088.3961828000029,1089.3322265000315,1089.3988540000282,1093.3608186999918,1093.3608186999918,1094.360871199984,1094.360871199984,1094.360871199984,1097.3283747999812,period,1,2.95562650001375,None,,,,,,,,,,,,,,,,,,,,,,,,,,,,,,,,,,,,,,,,,,,,,,,,,,,,,,,,,,010,001,2024-06-04_17h24.43.597,ps,2023.2.3,30.00485478404752,2024-06-04 17h24.53.279787 -0400,
mini_blocks/2d_wm_mini_block_2.xlsx,"*Break*
Entering the 2D WORKING MEMORY block
Rotation is Counter/Clockwise
Press <4> to continue
               ",1,0,0,2D,None,60,False,True,12,obj1,100,160,output_pairs/2D_60_WM/2D_60_WM_12_1_obj_10_100deg.png,output_pairs/2D_60_WM/2D_60_WM_12_2_obj_10_160deg.png,141,comma,0,4,4,4,,,,,0,12,12,12,,,,,,,,,1101.4033060999936,,,,,,,,,,,,,,,,,,,,,,,,,,,,,,,,,,,,,,,,,,,,,,,1108.9331689000246,1108.9655410000123,1108.9655410000123,,,1110.9627678000252,3.0,['slash'],[0.806394699960947],[None],1110.9629292000318,1110.9941532000084,1112.96137189999,,,,,,,,,,,,,1101.3324606000097,1101.4033060999936,1102.3319701,1102.431950099999,1106.3610795999994,1106.3610795999994,1107.3321236000047,1107.3321236000047,1107.3655285999994,1108.9329587999964,comma,1,1.5761156000080518,None,,,,,,,,,,,,,,,,,,,,,,,,,,,,,,,,,,,,,,,,,,,,,,,,,,,,,,,,,,010,001,2024-06-04_17h24.43.597,ps,2023.2.3,30.00485478404752,2024-06-04 17h24.53.279787 -0400,
mini_blocks/2d_wm_mini_block_2.xlsx,"*Break*
Entering the 2D WORKING MEMORY block
Rotation is Counter/Clockwise
Press <4> to continue
               ",1,0,0,2D,None,120,False,True,15,obj1,100,220,output_pairs/2D_120_WM/2D_120_WM_15_1_obj_12_100deg.png,output_pairs/2D_120_WM/2D_120_WM_15_2_obj_12_220deg.png,178,comma,0,4,4,4,,,,,0,13,13,13,,,,,,,,,1113.0111801000312,,,,,,,,,,,,,,,,,,,,,,,,,,,,,,,,,,,,,,,,,,,,,,,1120.7334845000296,1120.7655727000092,1120.7655727000092,,,1122.7628755000187,3.0,['slash'],[0.7264738999656402],[None],1122.7630321999895,1122.794061499997,1124.7656870000064,,,,,,,,,,,,,1112.9615945999976,1113.0111801000312,1113.937897900003,1114.0278259000042,1117.9606182000134,1117.9606182000134,1118.9609094000189,1118.9609094000189,1118.9609094000189,1120.7332691000192,comma,1,1.7471729000099003,None,,,,,,,,,,,,,,,,,,,,,,,,,,,,,,,,,,,,,,,,,,,,,,,,,,,,,,,,,,010,001,2024-06-04_17h24.43.597,ps,2023.2.3,30.00485478404752,2024-06-04 17h24.53.279787 -0400,
mini_blocks/2d_wm_mini_block_2.xlsx,"*Break*
Entering the 2D WORKING MEMORY block
Rotation is Counter/Clockwise
Press <4> to continue
               ",1,0,0,2D,None,120,False,True,8,obj1,160,40,output_pairs/2D_120_WM/2D_120_WM_08_1_obj_15_160deg.png,output_pairs/2D_120_WM/2D_120_WM_08_2_obj_15_40deg.png,180,comma,0,4,4,4,,,,,0,14,14,14,,,,,,,,,1124.8250962999882,,,,,,,,,,,,,,,,,,,,,,,,,,,,,,,,,,,,,,,,,,,,,,,1131.8621223000227,1131.894090100017,1131.894090100017,1133.8988150000223,1133.8988150000223,1133.8648473999929,3.0,['slash'],[0.5432597000035457],[None],1133.8649934999994,1133.8988150000223,1135.8946812999784,,,,,,,,,,,,,1124.7658986999886,1124.8250962999882,1125.7383954999968,1125.8381344000227,1129.7655310999835,1129.7655310999835,1130.7716847999836,1130.7716847999836,1130.7716847999836,1131.8619134000037,comma,1,1.056739900028333,None,,,,,,,,,,,,,,,,,,,,,,,,,,,,,,,,,,,,,,,,,,,,,,,,,,,,,,,,,,010,001,2024-06-04_17h24.43.597,ps,2023.2.3,30.00485478404752,2024-06-04 17h24.53.279787 -0400,
mini_blocks/2d_wm_mini_block_2.xlsx,"*Break*
Entering the 2D WORKING MEMORY block
Rotation is Counter/Clockwise
Press <4> to continue
               ",1,0,0,2D,None,60,False,True,31,sm5,320,20,output_pairs/2D_60_WM/2D_60_WM_31_1_SM5_320deg.png,output_pairs/2D_60_WM/2D_60_WM_31_2_SM5_20deg.png,142,comma,0,4,4,4,,,,,0,15,15,15,,,,,,,,,1135.9439665999962,,,,,,,,,,,,,,,,,,,,,,,,,,,,,,,,,,,,,,,,,,,,,,,1143.02886890003,1143.0612183000194,1143.0612183000194,1145.060950700019,1145.060950700019,1145.0312268999987,3.0,['slash'],[0.5502314000041224],[None],1145.0313772999798,1145.060950700019,1147.0284345999826,1147.0608685000334,,,,,,,,,,,,1135.895024700032,1135.9439665999962,1136.8611674000276,1136.9613771000295,1140.8656222000136,1140.8656222000136,1141.8716085000196,1141.8716085000196,1141.8716085000196,1143.0286311000236,comma,1,1.1333542999927886,None,,,,,,,,,,,,,,,,,,,,,,,,,,,,,,,,,,,,,,,,,,,,,,,,,,,,,,,,,,010,001,2024-06-04_17h24.43.597,ps,2023.2.3,30.00485478404752,2024-06-04 17h24.53.279787 -0400,
mini_blocks/2d_wm_mini_block_2.xlsx,"*Break*
Entering the 2D WORKING MEMORY block
Rotation is Counter/Clockwise
Press <4> to continue
               ",1,0,0,,,,,,,,,,,,,,0,4,4,4,,,,,,,,,,,,,,,,,,,,,,,,,,,,,,,,,,,,,,,,,,,,,,,,,,,,,,,,,,,,,,,,,,,,,,,,,,,,,,1147.0284977999981,1147.0608685000334,1147.0608685000334,1155.0334526000079,4.0,['rshift'],[1.911324099986814],[None],1155.033703299996,1155.033729000017,None,,,,,,,,,,,,,,,,,,,,,,,,,,,,,,,,,,,,,,,,,,,,,,,,,,,,,,,,,,,,,,,,,,,,,,,,010,001,2024-06-04_17h24.43.597,ps,2023.2.3,30.00485478404752,2024-06-04 17h24.53.279787 -0400,
mini_blocks/3dp_wm_mini_block_0.xlsx,"*Break*
Entering the 3D WORKING MEMORY block
Rotation is Counter/Clockwise
Press <4> to continue",1,0,0,3D,p,0,True,True,6,obj5,120,120,output_pairs/3Dp_0_M_WM/3Dp_0_M_WM_06_1_obj_5_120deg.png,output_pairs/3Dp_0_M_WM/3Dp_0_M_WM_06_2_obj_5_120deg.png,536,period,0,5,5,5,,,,,0,0,0,0,,,,,,,,,1156.990976799978,,,,,,,,,,,,,,,,,,,,,,,,,,,,,,1155.033847499988,1155.07101840002,1155.07101840002,1156.9287748999777,rshift,1.8538141999742948,None,,,,,,,,,,,1166.4334035000065,1166.4657220999943,1166.4657220999943,,,1168.4629829000332,3.0,['slash'],[1.3379847999894992],[None],1168.4632374999928,1168.4943823000067,1170.4659086000174,,,,,,,,,,,,,1156.9412525999942,1156.990976799978,1157.9279406000278,1157.9945928999805,1161.9277190000284,1161.9610936000245,1162.9609493000316,1162.9609493000316,1162.9609493000316,1166.4330749000073,period,1,3.443617800017819,None,,,,,,,,,,,,,,,,,,,,,,,,,,,,,,,,,,,,,,,,,,,,,,,,,,,,,,,,,,010,001,2024-06-04_17h24.43.597,ps,2023.2.3,30.00485478404752,2024-06-04 17h24.53.279787 -0400,
mini_blocks/3dp_wm_mini_block_0.xlsx,"*Break*
Entering the 3D WORKING MEMORY block
Rotation is Counter/Clockwise
Press <4> to continue",1,0,0,3D,p,0,True,True,2,obj1,220,220,output_pairs/3Dp_0_M_WM/3Dp_0_M_WM_02_1_obj_13_220deg.png,output_pairs/3Dp_0_M_WM/3Dp_0_M_WM_02_2_obj_13_220deg.png,518,period,0,5,5,5,,,,,0,1,1,1,,,,,,,,,1170.5257856000098,,,,,,,,,,,,,,,,,,,,,,,,,,,,,,,,,,,,,,,,,,,,,,,1179.028578700032,1179.0612262000213,1179.0612262000213,,,1181.030631600006,3.0,['slash'],[0.5666347999940626],[None],1181.0307857000153,1181.0614826999954,1183.0324969000067,,,,,,,,,,,,,1170.466134199989,1170.5257856000098,1171.438598299981,1171.5383725999855,1175.4656871000188,1175.4323172000004,1176.4382587000146,1176.4382587000146,1176.4382587000146,1179.0283862000215,period,1,2.565515299967956,None,,,,,,,,,,,,,,,,,,,,,,,,,,,,,,,,,,,,,,,,,,,,,,,,,,,,,,,,,,010,001,2024-06-04_17h24.43.597,ps,2023.2.3,30.00485478404752,2024-06-04 17h24.53.279787 -0400,
mini_blocks/3dp_wm_mini_block_0.xlsx,"*Break*
Entering the 3D WORKING MEMORY block
Rotation is Counter/Clockwise
Press <4> to continue",1,0,0,3D,p,180,False,True,13,sm2,120,300,output_pairs/3Dp_180_WM/3Dp_60_WM_13_1_sm_2_120deg.png,output_pairs/3Dp_180_WM/3Dp_60_WM_13_2_sm_2_300deg.png,487,comma,0,5,5,5,,,,,0,2,2,2,,,,,,,,,1183.0840992000303,,,,,,,,,,,,,,,,,,,,,,,,,,,,,,,,,,,,,,,,,,,,,,,1194.1667199999793,1194.1990617000265,1194.1990617000265,,,1196.173482800019,3.0,['slash'],[0.5578533000079915],[None],1196.1736600000295,1196.205087099981,1198.1720529000158,,,,,,,,,,,,,1183.0326756000286,1183.0840992000303,1184.0281814000336,1184.1049653000082,1188.0323800999904,1188.0323800999904,1189.0383414999815,1189.0383414999815,1189.0383414999815,1194.1665207000333,period,0,5.11859780002851,None,,,,,,,,,,,,,,,,,,,,,,,,,,,,,,,,,,,,,,,,,,,,,,,,,,,,,,,,,,010,001,2024-06-04_17h24.43.597,ps,2023.2.3,30.00485478404752,2024-06-04 17h24.53.279787 -0400,
mini_blocks/3dp_wm_mini_block_0.xlsx,"*Break*
Entering the 3D WORKING MEMORY block
Rotation is Counter/Clockwise
Press <4> to continue",1,0,0,3D,p,120,False,True,18,obj1,320,80,output_pairs/3Dp_120_WM/3Dp_120_WM_18_1_obj_14_320deg.png,output_pairs/3Dp_120_WM/3Dp_120_WM_18_2_obj_14_80deg.png,341,comma,0,5,5,5,,,,,0,3,3,3,,,,,,,,,1198.2453807999846,,,,,,,,,,,,,,,,,,,,,,,,,,,,,,,,,,,,,,,,,,,,,,,1205.666879800032,1205.6992021999904,1205.6992021999904,,,1207.6960665999795,3.0,"['slash', 'slash']","[0.5293827999848872, 1.161399100034032]","[None, None]",1207.6962245000177,1207.7277530999854,1209.6993987000315,,,,,,,,,,,,,1198.1722487999941,1198.2453807999846,1199.1949539000052,1199.2615424999967,1203.1945475999964,1203.1945475999964,1204.165981500002,1204.165981500002,1204.19913730002,1205.6666908999905,comma,1,1.4944014999782667,None,,,,,,,,,,,,,,,,,,,,,,,,,,,,,,,,,,,,,,,,,,,,,,,,,,,,,,,,,,010,001,2024-06-04_17h24.43.597,ps,2023.2.3,30.00485478404752,2024-06-04 17h24.53.279787 -0400,
mini_blocks/3dp_wm_mini_block_0.xlsx,"*Break*
Entering the 3D WORKING MEMORY block
Rotation is Counter/Clockwise
Press <4> to continue",1,0,0,3D,p,60,False,True,29,sm1,280,220,output_pairs/3Dp_60_WM/3Dp_60_WM_29_1_sm_1_280deg.png,output_pairs/3Dp_60_WM/3Dp_60_WM_29_2_sm_1_220deg.png,414,comma,0,5,5,5,,,,,0,4,4,4,,,,,,,,,1209.7614289000048,,,,,,,,,,,,,,,,,,,,,,,,,,,,,,,,,,,,,,,,,,,,,,,1217.662520700018,1217.6947052000323,1217.6947052000323,,,1219.6674562999979,3.0,['slash'],[0.7659498000284657],[None],1219.667610400007,1219.6991873999941,1221.695066699991,,,,,,,,,,,,,1209.6997790000169,1209.7614289000048,1210.6718451000052,1210.7720371999894,1214.6949624000117,1214.6659452000167,1215.67180489999,1215.67180489999,1215.67180489999,1217.6623135000118,comma,1,1.9576575999963097,None,,,,,,,,,,,,,,,,,,,,,,,,,,,,,,,,,,,,,,,,,,,,,,,,,,,,,,,,,,010,001,2024-06-04_17h24.43.597,ps,2023.2.3,30.00485478404752,2024-06-04 17h24.53.279787 -0400,
mini_blocks/3dp_wm_mini_block_0.xlsx,"*Break*
Entering the 3D WORKING MEMORY block
Rotation is Counter/Clockwise
Press <4> to continue",1,0,0,3D,p,180,False,True,7,obj5,60,240,output_pairs/3Dp_180_WM/3Dp_60_WM_07_1_obj_5_60deg.png,output_pairs/3Dp_180_WM/3Dp_60_WM_07_2_obj_5_240deg.png,499,comma,0,5,5,5,,,,,0,5,5,5,,,,,,,,,1221.7452941000229,,,,,,,,,,,,,,,,,,,,,,,,,,,,,,,,,,,,,,,,,,,,,,,1229.2669061999768,1229.2993630000274,1229.2993630000274,,,1231.2967000000062,3.0,['slash'],[0.5611507000285201],[None],1231.2968580999877,1231.328130399983,1233.299451400002,,,,,,,,,,,,,1221.6953577999957,1221.7452941000229,1222.6658082000213,1222.761907099979,1226.694618700014,1226.694618700014,1227.6658906000084,1227.6658906000084,1227.6993832000298,1229.2667151999776,comma,1,1.5951200000126846,None,,,,,,,,,,,,,,,,,,,,,,,,,,,,,,,,,,,,,,,,,,,,,,,,,,,,,,,,,,010,001,2024-06-04_17h24.43.597,ps,2023.2.3,30.00485478404752,2024-06-04 17h24.53.279787 -0400,
mini_blocks/3dp_wm_mini_block_0.xlsx,"*Break*
Entering the 3D WORKING MEMORY block
Rotation is Counter/Clockwise
Press <4> to continue",1,0,0,3D,p,180,True,True,12,sm4,160,340,output_pairs/3Dp_180_M_WM/3Dp_180_M_WM_12_1_sm_4_160deg.png,output_pairs/3Dp_180_M_WM/3Dp_180_M_WM_12_2_sm_4_340deg.png,58,period,0,5,5,5,,,,,0,6,6,6,,,,,,,,,1233.3539400000009,,,,,,,,,,,,,,,,,,,,,,,,,,,,,,,,,,,,,,,,,,,,,,,1243.5001080000075,1243.5284861000255,1243.5284861000255,1245.5326206000173,1245.5326206000173,1245.5028641999816,3.0,['slash'],[0.9072185999830253],[None],1245.5030072000227,1245.5326206000173,1247.5284059999976,,,,,,,,,,,,,1233.2996275000041,1233.3539400000009,1234.271851300029,1234.3614664999768,1238.2992274999851,1238.2992274999851,1239.2950726000126,1239.2950726000126,1239.3282689999905,1243.4999129999778,comma,0,4.189309800043702,None,,,,,,,,,,,,,,,,,,,,,,,,,,,,,,,,,,,,,,,,,,,,,,,,,,,,,,,,,,010,001,2024-06-04_17h24.43.597,ps,2023.2.3,30.00485478404752,2024-06-04 17h24.53.279787 -0400,
mini_blocks/3dp_wm_mini_block_0.xlsx,"*Break*
Entering the 3D WORKING MEMORY block
Rotation is Counter/Clockwise
Press <4> to continue",1,0,0,3D,p,0,False,True,15,obj1,220,220,output_pairs/3Dp_0_WM/3Dp_0_WM_15_1_obj_11_220deg.png,output_pairs/3Dp_0_WM/3Dp_0_WM_15_2_obj_11_220deg.png,99,comma,0,5,5,5,,,,,0,7,7,7,,,,,,,,,1247.6082994000171,,,,,,,,,,,,,,,,,,,,,,,,,,,,,,,,,,,,,,,,,,,,,,,1254.9624045999954,1254.9947839999804,1254.9947839999804,1256.9947900000261,1256.9947900000261,1256.967813300027,3.0,['slash'],[0.5611376999877393],[None],1256.9679842999903,1256.9947900000261,1258.9663051000098,,,,,,,,,,,,,1247.528679399984,1247.6082994000171,1248.5283197999815,1248.632568800007,1252.5281237000017,1252.5281237000017,1253.4994196000043,1253.4994196000043,1253.5327577000135,1254.9621935000177,comma,1,1.4331194000551477,None,,,,,,,,,,,,,,,,,,,,,,,,,,,,,,,,,,,,,,,,,,,,,,,,,,,,,,,,,,010,001,2024-06-04_17h24.43.597,ps,2023.2.3,30.00485478404752,2024-06-04 17h24.53.279787 -0400,
mini_blocks/3dp_wm_mini_block_0.xlsx,"*Break*
Entering the 3D WORKING MEMORY block
Rotation is Counter/Clockwise
Press <4> to continue",1,0,0,3D,p,60,True,True,13,obj5,300,0,output_pairs/3Dp_60_M_WM/3Dp_60_M_WM_13_1_obj_5_300deg.png,output_pairs/3Dp_60_M_WM/3Dp_60_M_WM_13_2_obj_5_0deg.png,305,period,0,5,5,5,,,,,0,8,8,8,,,,,,,,,1259.0157618999947,,,,,,,,,,,,,,,,,,,,,,,,,,,,,,,,,,,,,,,,,,,,,,,1268.300275799993,1268.3284390000044,1268.3284390000044,1270.332680499996,1270.332680499996,1270.299009200011,3.0,['slash'],[0.6676852999953553],[None],1270.2991540000075,1270.332680499996,1272.3284423000296,,,,,,,,,,,,,1258.9664914000314,1259.0157618999947,1259.9662424999988,1260.0328867000062,1263.9660034999833,1263.9660034999833,1264.9720958999824,1264.9720958999824,1264.9720958999824,1268.3000797000132,period,1,3.2962513000238687,None,,,,,,,,,,,,,,,,,,,,,,,,,,,,,,,,,,,,,,,,,,,,,,,,,,,,,,,,,,010,001,2024-06-04_17h24.43.597,ps,2023.2.3,30.00485478404752,2024-06-04 17h24.53.279787 -0400,
mini_blocks/3dp_wm_mini_block_0.xlsx,"*Break*
Entering the 3D WORKING MEMORY block
Rotation is Counter/Clockwise
Press <4> to continue",1,0,0,3D,p,60,True,True,30,sm4,100,40,output_pairs/3Dp_60_M_WM/3Dp_60_M_WM_30_1_sm_4_100deg.png,output_pairs/3Dp_60_M_WM/3Dp_60_M_WM_30_2_sm_4_40deg.png,290,period,0,5,5,5,,,,,0,9,9,9,,,,,,,,,1272.3761849000002,,,,,,,,,,,,,,,,,,,,,,,,,,,,,,,,,,,,,,,,,,,,,,,1281.6623043,1281.6949134999886,1281.6949134999886,1283.6949987999978,1283.6949987999978,1283.6650319999899,3.0,['slash'],[0.5585694999899715],[None],1283.6651784999995,1283.6949987999978,1285.6722531000269,,,,,,,,,,,,,1272.328660500003,1272.3761849000002,1273.2993301000097,1273.3952080000308,1277.3281273000175,1277.3281273000175,1278.3282972000306,1278.3282972000306,1278.3282972000306,1281.6621026999783,comma,0,3.3320447000442073,None,,,,,,,,,,,,,,,,,,,,,,,,,,,,,,,,,,,,,,,,,,,,,,,,,,,,,,,,,,010,001,2024-06-04_17h24.43.597,ps,2023.2.3,30.00485478404752,2024-06-04 17h24.53.279787 -0400,
mini_blocks/3dp_wm_mini_block_0.xlsx,"*Break*
Entering the 3D WORKING MEMORY block
Rotation is Counter/Clockwise
Press <4> to continue",1,0,0,3D,p,120,False,True,15,obj1,260,20,output_pairs/3Dp_120_WM/3Dp_120_WM_15_1_obj_1_260deg.png,output_pairs/3Dp_120_WM/3Dp_120_WM_15_2_obj_1_20deg.png,336,comma,0,5,5,5,,,,,0,10,10,10,,,,,,,,,1285.7269347999827,,,,,,,,,,,,,,,,,,,,,,,,,,,,,,,,,,,,,,,,,,,,,,,1293.8338682000176,1293.8663421000238,1293.8663421000238,,,1295.8633574999985,3.0,['slash'],[0.8173979000421241],[None],1295.8635175999952,1295.8949376000091,1297.866397899983,,,,,,,,,,,,,1285.6724403999979,1285.7269347999827,1286.6618238000083,1286.7284540000255,1290.6618207999854,1290.6618207999854,1291.6621305000153,1291.6621305000153,1291.6621305000153,1293.8336551000248,comma,1,2.142863799992483,None,,,,,,,,,,,,,,,,,,,,,,,,,,,,,,,,,,,,,,,,,,,,,,,,,,,,,,,,,,010,001,2024-06-04_17h24.43.597,ps,2023.2.3,30.00485478404752,2024-06-04 17h24.53.279787 -0400,
mini_blocks/3dp_wm_mini_block_0.xlsx,"*Break*
Entering the 3D WORKING MEMORY block
Rotation is Counter/Clockwise
Press <4> to continue",1,0,0,3D,p,0,False,True,11,obj5,300,300,output_pairs/3Dp_0_WM/3Dp_0_WM_11_1_obj_5_300deg.png,output_pairs/3Dp_0_WM/3Dp_0_WM_11_2_obj_5_300deg.png,107,comma,0,5,5,5,,,,,0,11,11,11,,,,,,,,,1297.917411900009,,,,,,,,,,,,,,,,,,,,,,,,,,,,,,,,,,,,,,,,,,,,,,,1304.8399312000256,1304.8722273000167,1304.8722273000167,,,1306.8635881000082,4.0,['rshift'],[0.596475400030613],[None],1306.8637459999882,1306.8950736999977,1308.8664590999833,,,,,,,,,,,,,1297.8665875000297,1297.917411900009,1298.8388783999835,1298.9284581000102,1302.8664307,1302.8664307,1303.8663540999987,1303.8663540999987,1303.8663540999987,1304.8397411000333,comma,1,0.9544547999976203,None,,,,,,,,,,,,,,,,,,,,,,,,,,,,,,,,,,,,,,,,,,,,,,,,,,,,,,,,,,010,001,2024-06-04_17h24.43.597,ps,2023.2.3,30.00485478404752,2024-06-04 17h24.53.279787 -0400,
mini_blocks/3dp_wm_mini_block_0.xlsx,"*Break*
Entering the 3D WORKING MEMORY block
Rotation is Counter/Clockwise
Press <4> to continue",1,0,0,3D,p,120,True,True,15,obj6,80,320,output_pairs/3Dp_120_M_WM/3Dp_120_M_WM_15_1_obj_6_80deg.png,output_pairs/3Dp_120_M_WM/3Dp_120_M_WM_15_2_obj_6_320deg.png,660,period,0,5,5,5,,,,,0,12,12,12,,,,,,,,,1308.9152604999836,,,,,,,,,,,,,,,,,,,,,,,,,,,,,,,,,,,,,,,,,,,,,,,1316.629148899985,1316.6616312999977,1316.6616312999977,1318.6617109000217,1318.6617109000217,1318.63243160001,3.0,['slash'],[0.6227539000101388],[None],1318.6326038999832,1318.6617109000217,1320.6390567999915,,,,,,,,,,,,,1308.8666346999817,1308.9152604999836,1309.8286384000094,1309.928687000007,1313.8284361999831,1313.8616544000106,1314.8663170000073,1314.8663170000073,1314.8663170000073,1316.6289063000004,period,1,1.745330500009004,0.009176699968520552,,,,,,,,,,,,,,,,,,,,,,,,,,,,,,,,,,,,,,,,,,,,,,,,,,,,,,,,,,010,001,2024-06-04_17h24.43.597,ps,2023.2.3,30.00485478404752,2024-06-04 17h24.53.279787 -0400,
mini_blocks/3dp_wm_mini_block_0.xlsx,"*Break*
Entering the 3D WORKING MEMORY block
Rotation is Counter/Clockwise
Press <4> to continue",1,0,0,3D,p,60,False,True,32,obj1,260,320,output_pairs/3Dp_60_WM/3Dp_60_WM_32_1_obj_12_260deg.png,output_pairs/3Dp_60_WM/3Dp_60_WM_32_2_obj_12_320deg.png,415,comma,0,5,5,5,,,,,0,13,13,13,,,,,,,,,1320.6909056000295,,,,,,,,,,,,,,,,,,,,,,,,,,,,,,,,,,,,,,,,,,,,,,,1328.8961045999895,1328.9284070000285,1328.9284070000285,,,1330.9014792999951,3.0,['slash'],[0.6524619000265375],[None],1330.9016405000002,1330.9329841000144,1332.8997529000044,,,,,,,,,,,,,1320.6392428000108,1320.6909056000295,1321.6286833999911,1321.6952264999854,1325.6285071999882,1325.6285071999882,1326.63303550001,1326.63303550001,1326.63303550001,1328.8958927000058,comma,1,2.251548400032334,None,,,,,,,,,,,,,,,,,,,,,,,,,,,,,,,,,,,,,,,,,,,,,,,,,,,,,,,,,,010,001,2024-06-04_17h24.43.597,ps,2023.2.3,30.00485478404752,2024-06-04 17h24.53.279787 -0400,
mini_blocks/3dp_wm_mini_block_0.xlsx,"*Break*
Entering the 3D WORKING MEMORY block
Rotation is Counter/Clockwise
Press <4> to continue",1,0,0,3D,p,120,True,True,27,obj3,280,160,output_pairs/3Dp_120_M_WM/3Dp_120_M_WM_27_1_obj_3_280deg.png,output_pairs/3Dp_120_M_WM/3Dp_120_M_WM_27_2_obj_3_160deg.png,652,period,0,5,5,5,,,,,0,14,14,14,,,,,,,,,1332.9533639000147,,,,,,,,,,,,,,,,,,,,,,,,,,,,,,,,,,,,,,,,,,,,,,,1341.729774300009,1341.7620939000044,1341.7620939000044,1343.761714000022,1343.761714000022,1343.732679800014,2.0,"['comma', 'period']","[0.6190343000344001, 1.3626930000027642]","[None, None]",1343.732840600016,1343.761714000022,1345.7290922999964,1345.7832940000226,,,,,,,,,,,,1332.899926699989,1332.9533639000147,1333.8954369000276,1333.9620878000278,1337.8997032000334,1337.8997032000334,1338.9059232000145,1338.9059232000145,1338.9059232000145,1341.7295528000104,period,1,2.8025722000165842,None,,,,,,,,,,,,,,,,,,,,,,,,,,,,,,,,,,,,,,,,,,,,,,,,,,,,,,,,,,010,001,2024-06-04_17h24.43.597,ps,2023.2.3,30.00485478404752,2024-06-04 17h24.53.279787 -0400,
mini_blocks/3dp_wm_mini_block_0.xlsx,"*Break*
Entering the 3D WORKING MEMORY block
Rotation is Counter/Clockwise
Press <4> to continue",1,0,0,3D,p,180,True,True,20,sm2,340,160,output_pairs/3Dp_180_M_WM/3Dp_180_M_WM_20_1_sm_2_340deg.png,output_pairs/3Dp_180_M_WM/3Dp_180_M_WM_20_2_sm_2_160deg.png,51,period,0,5,5,5,,,,,0,15,15,15,,,,,,,,,1345.7832940000226,,,,,,,,,,,,,,,,,,,,,,,,,,,,,,,,,,,,,,,,,,,,,,,1355.4962340000202,1355.528526399983,1355.528526399983,,,1357.5015395000228,2.0,['period'],[0.8763929000124335],[None],1357.5017220000154,1357.5288463000325,1359.4999861000106,,,,,,,,,,,,,1345.7292704000138,1345.7832940000226,1346.7390756999957,1346.8058010999812,1350.7618293000269,1350.7618293000269,1351.7619750000304,1351.7619750000304,1351.7619750000304,1355.4960236999905,period,1,3.730507200001739,None,,,,,,,,,,,,,,,,,,,,,,,,,,,,,,,,,,,,,,,,,,,,,,,,,,,,,,,,,,010,001,2024-06-04_17h24.43.597,ps,2023.2.3,30.00485478404752,2024-06-04 17h24.53.279787 -0400,
mini_blocks/3dp_wm_mini_block_0.xlsx,"*Break*
Entering the 3D WORKING MEMORY block
Rotation is Counter/Clockwise
Press <4> to continue",1,0,0,,,,,,,,,,,,,,0,5,5,5,,,,,,,,,,,,,,,,,,,,,,,,,,,,,,,,,,,,,,,,,,,,,,,,,,,,,,,,,,,,,,,,,,,,,,,,,,,,,,1359.5000549000106,1359.5288283000118,1359.5288283000118,1367.4990120999864,4.0,['rshift'],[1.467622600030154],[None],1367.4991513999994,1367.4991723999847,None,,,,,,,,,,,,,,,1367.5285848000203,1367.5285848000203,,,,,,,,,,,,,,,,,,,,,,,,,,,,,,,,,,,,,,,,,,,,,,,,,,,,,,,,010,001,2024-06-04_17h24.43.597,ps,2023.2.3,30.00485478404752,2024-06-04 17h24.53.279787 -0400,
mini_blocks/3dp_single_mini_block_3.xlsx,"*Break*
Entering the 3D SIMULTANEOUS block
Rotation is Counter/Clockwise
Press <4> to continue",0,1,0,3D,p,60,True,False,None,sm5,300,0,output_pairs/3Dp_60m/3Dp_60m_sm_5_300_to_0deg.png,None,852,period,0,6,6,6,0,0,0,0,,,,,,,,,,,,,1369.8561236999813,,,,,,,,,,,,,,,,,,,,,,,,,,,,,,1367.4992894000025,1367.5285848000203,1367.5285848000203,1369.8007713999832,rshift,2.26047550002113,None,1369.8171446999768,1369.8561236999813,1370.7955687000067,1370.7955687000067,1370.8622001999756,1377.033480699989,period,1,6.200527899956796,None,1377.0337872999953,1377.0660450999858,1377.0660450999858,,,1379.063968500006,3.0,['slash'],[0.7544926999835297],[None],1379.064224300033,1379.0952968000202,1381.062091699976,,,,,,,,,,,,,,,,,,,,,,,,,,,,,,,,,,,,,,,,,,,,,,,,,,,,,,,,,,,,,,,,,,,,,,,,,,,,,,,,,,,,010,001,2024-06-04_17h24.43.597,ps,2023.2.3,30.00485478404752,2024-06-04 17h24.53.279787 -0400,
mini_blocks/3dp_single_mini_block_3.xlsx,"*Break*
Entering the 3D SIMULTANEOUS block
Rotation is Counter/Clockwise
Press <4> to continue",0,1,0,3D,p,0,True,False,None,obj5,180,None,output_pairs/3Dp_0m/3Dp_0m_obj_5_180deg.png,None,1710,period,0,6,6,6,0,1,1,1,,,,,,,,,,,,,1381.1021778000286,,,,,,,,,,,,,,,,,,,,,,,,,,,,,,,,,,,,,1381.062355400005,1381.1021778000286,1382.066750099999,1382.066750099999,1382.1290709000314,1383.3669077000231,period,1,1.2825873999972828,None,1383.3671218000236,1383.3996914000018,1383.3996914000018,,,1385.3974793999805,4.0,['rshift'],[0.6292603999609128],[None],1385.3976485999883,1385.4286217000335,1387.3954850999871,,,,,,,,,,,,,,,,,,,,,,,,,,,,,,,,,,,,,,,,,,,,,,,,,,,,,,,,,,,,,,,,,,,,,,,,,,,,,,,,,,,,010,001,2024-06-04_17h24.43.597,ps,2023.2.3,30.00485478404752,2024-06-04 17h24.53.279787 -0400,
mini_blocks/3dp_single_mini_block_3.xlsx,"*Break*
Entering the 3D SIMULTANEOUS block
Rotation is Counter/Clockwise
Press <4> to continue",0,1,0,3D,p,120,True,False,None,obj1,320,80,output_pairs/3Dp_120m/3Dp_120m_obj_13_320_to_80deg.png,None,2129,period,0,6,6,6,0,2,2,2,,,,,,,,,,,,,1387.4391032999847,,,,,,,,,,,,,,,,,,,,,,,,,,,,,,,,,,,,,1387.3957026000135,1387.4391032999847,1388.3667027000338,1388.3667027000338,1388.4663328999886,1393.9001238999772,period,1,5.5263446000171825,None,1393.9003273000126,1393.9328706000233,1393.9328706000233,,,1395.9306401999784,3.0,['slash'],[1.1357362999697216],[None],1395.9308093999862,1395.9620467000059,1397.9334950000048,,,,,,,,,,,,,,,,,,,,,,,,,,,,,,,,,,,,,,,,,,,,,,,,,,,,,,,,,,,,,,,,,,,,,,,,,,,,,,,,,,,,010,001,2024-06-04_17h24.43.597,ps,2023.2.3,30.00485478404752,2024-06-04 17h24.53.279787 -0400,
mini_blocks/3dp_single_mini_block_3.xlsx,"*Break*
Entering the 3D SIMULTANEOUS block
Rotation is Counter/Clockwise
Press <4> to continue",0,1,0,3D,p,120,False,False,None,obj7,160,280,output_pairs/3Dp_120/3Dp_120_obj_7_160_to_280deg.png,None,708,comma,0,6,6,6,0,3,3,3,,,,,,,,,,,,,1397.9747887999984,,,,,,,,,,,,,,,,,,,,,,,,,,,,,,,,,,,,,1397.9336808000226,1397.9747887999984,1398.906126499991,1398.906126499991,1398.995748299989,1401.6963830000022,comma,1,2.7710708000231534,None,1401.6965915000183,1401.7287189000053,1401.7287189000053,,,1403.702260399994,3.0,['slash'],[0.7001585999969393],[None],1403.7025926000206,1403.7292009000084,1405.7064282000065,,,,,,,,,,,,,,,,,,,,,,,,,,,,,,,,,,,,,,,,,,,,,,,,,,,,,,,,,,,,,,,,,,,,,,,,,,,,,,,,,,,,010,001,2024-06-04_17h24.43.597,ps,2023.2.3,30.00485478404752,2024-06-04 17h24.53.279787 -0400,
mini_blocks/3dp_single_mini_block_3.xlsx,"*Break*
Entering the 3D SIMULTANEOUS block
Rotation is Counter/Clockwise
