condition_file,message_to_show,repN_wm,repN_single,repN_break,dimension,rot_type,angle,mirror,wm,pair_id,obj_id,orientation1,orientation2,image_path_1,image_path_2,marker_id,correctAns,block_loop_main.thisRepN,block_loop_main.thisTrialN,block_loop_main.thisN,block_loop_main.thisIndex,simu_trials_loop.thisRepN,simu_trials_loop.thisTrialN,simu_trials_loop.thisN,simu_trials_loop.thisIndex,wm_trials_loop.thisRepN,wm_trials_loop.thisTrialN,wm_trials_loop.thisN,wm_trials_loop.thisIndex,block_loop_3dd.thisRepN,block_loop_3dd.thisTrialN,block_loop_3dd.thisN,block_loop_3dd.thisIndex,first_3Dd_wm.thisRepN,first_3Dd_wm.thisTrialN,first_3Dd_wm.thisN,first_3Dd_wm.thisIndex,thisRow.t,notes,start.started,text_start.started,key_resp_start.started,start.stopped,key_resp_start.keys,key_resp_start.rt,key_resp_start.duration,instructions.started,key_resp_12.started,image_8.started,instructions.stopped,key_resp_12.keys,key_resp_12.rt,key_resp_12.duration,instructions_2.started,image_9.started,key_resp_20.started,instructions_2.stopped,key_resp_20.keys,key_resp_20.rt,key_resp_20.duration,instructions_3.started,image_10.started,key_resp_21.started,instructions_3.stopped,key_resp_21.keys,key_resp_21.rt,key_resp_21.duration,before_block_instr.started,text_13.started,key_resp_7.started,before_block_instr.stopped,key_resp_7.keys,key_resp_7.rt,key_resp_7.duration,routine_wm.started,text_4.started,img1.started,text_4.stopped,img1.stopped,text_5.started,text_5.stopped,img2.started,key_resp_3.started,routine_wm.stopped,key_resp_3.keys,key_resp_3.corr,key_resp_3.rt,key_resp_3.duration,vividness.started,image_vivid.started,key_resp_vivid_slider_control.started,image_vivid.stopped,key_resp_vivid_slider_control.stopped,vividness.stopped,vivid_response,key_resp_vivid_slider_control.keys,key_resp_vivid_slider_control.rt,key_resp_vivid_slider_control.duration,ITI.started,text_2.started,ITI.stopped,text_2.stopped,strat.started,image_strat.started,key_resp_strat_control.started,strat.stopped,strategy_response,key_resp_strat_control.keys,key_resp_strat_control.rt,key_resp_strat_control.duration,break_2.started,break_2.stopped,key_resp_13.keys,image_strat.stopped,key_resp_strat_control.stopped,routine_simu.started,text.started,image.started,key_resp.started,text.stopped,routine_simu.stopped,key_resp.keys,key_resp.corr,key_resp.rt,key_resp.duration,text_17.started,key_resp_13.started,key_resp_13.rt,key_resp_13.duration,practice_3Dd_screen.started,image_11.started,key_resp_22.started,practice_3Dd_screen.stopped,key_resp_22.keys,key_resp_22.rt,key_resp_22.duration,practice_1_3Dd.started,image_12.started,key_resp_23.started,practice_1_3Dd.stopped,key_resp_23.keys,key_resp_23.rt,key_resp_23.duration,practice_2_3Dd.started,image_13.started,key_resp_24.started,practice_2_3Dd.stopped,key_resp_24.keys,key_resp_24.rt,key_resp_24.duration,wm_3Dd_screen.started,text_16.started,key_resp_11.started,wm_3Dd_screen.stopped,key_resp_11.keys,key_resp_11.rt,key_resp_11.duration,routine_3Dd_wm.started,text_8.started,image_6.started,text_8.stopped,image_6.stopped,text_12.started,text_12.stopped,image_7.started,key_resp_6.started,routine_3Dd_wm.stopped,key_resp_6.keys,key_resp_6.corr,key_resp_6.rt,key_resp_6.duration,end.started,text_22.started,key_resp_18.started,end.stopped,key_resp_18.keys,key_resp_18.rt,key_resp_18.duration,participant,session,date,expName,psychopyVersion,frameRate,expStart,
,,,,,,,,,,,,,,,,,,,,,,,,,,,,,,,,,,,,,,,,0.06951289999960863,0.07317340000008699,0.07317340000008699,4.999978600000759,rshift,4.907323299999916,None,,,,,,,,,,,,,,,,,,,,,,,,,,,,,,,,,,,,,,,,,,,,,,,,,,,,,,,,,,,,,,,,,,,,,,,,,,,,,,,,,,,,,,,,,,,,,,,,,,,,,,,,,,,,,,,,,,,,,,,,,,,,,,,,,,,,,011,001,2024-06-11_14h46.18.963,ps,2023.2.3,30.059267858368383,2024-06-11 14h46.30.085257 -0400,
,,,,,,,,,,,,,,,,,,,,,,,,,,,,,,,,,,,,,,,,,,,,,,,4.99999630000093,5.032414600000266,5.032414600000266,7.166095000000496,rshift,2.1081420999998954,None,,,,,,,,,,,,,,,,,,,,,,,,,,,,,,,,,,,,,,,,,,,,,,,,,,,,,,,,,,,,,,,,,,,,,,,,,,,,,,,,,,,,,,,,,,,,,,,,,,,,,,,,,,,,,,,,,,,,,,,,,,,,,,011,001,2024-06-11_14h46.18.963,ps,2023.2.3,30.059267858368383,2024-06-11 14h46.30.085257 -0400,
,,,,,,,,,,,,,,,,,,,,,,,,,,,,,,,,,,,,,,,,,,,,,,,,,,,,,,7.166113700001006,7.198702699999558,7.198702699999558,8.466281200000594,rshift,1.2538586999999097,None,,,,,,,,,,,,,,,,,,,,,,,,,,,,,,,,,,,,,,,,,,,,,,,,,,,,,,,,,,,,,,,,,,,,,,,,,,,,,,,,,,,,,,,,,,,,,,,,,,,,,,,,,,,,,,,,,,,,,,,011,001,2024-06-11_14h46.18.963,ps,2023.2.3,30.059267858368383,2024-06-11 14h46.30.085257 -0400,
,,,,,,,,,,,,,,,,,,,,,,,,,,,,,,,,,,,,,,,,,,,,,,,,,,,,,,,,,,,,,8.466300300000512,8.498812400001043,8.498812400001043,9.966787499999555,rshift,1.4416603999998188,None,,,,,,,,,,,,,,,,,,,,,,,,,,,,,,,,,,,,,,,,,,,,,,,,,,,,,,,,,,,,,,,,,,,,,,,,,,,,,,,,,,,,,,,,,,,,,,,,,,,,,,,,,,,,,,,,011,001,2024-06-11_14h46.18.963,ps,2023.2.3,30.059267858368383,2024-06-11 14h46.30.085257 -0400,
mini_blocks/3dp_wm_mini_block_3.xlsx,"*Break*
Entering the 3D WORKING MEMORY block
Rotation is Counter/Clockwise
Press <4> to continue",1,0,0,3D,p,120,True,True,26,obj1,0,240,output_pairs/3Dp_120_M_WM/3Dp_120_M_WM_26_1_obj_12_0deg.png,output_pairs/3Dp_120_M_WM/3Dp_120_M_WM_26_2_obj_12_240deg.png,640,period,0,0,0,0,,,,,0,0,0,0,,,,,,,,,13.442532900000515,,,,,,,,,,,,,,,,,,,,,,,,,,,,,,9.972534399999859,9.999305499999537,9.999305499999537,13.243672099999458,rshift,3.2300848000013502,None,13.25630319999982,13.442532900000515,14.265986200000043,14.465996000000814,18.26580980000108,18.26580980000108,19.266139499999554,19.266139499999554,19.266139499999554,21.132899199999883,period,1,1.8505325000005541,None,21.13319009999941,21.165688000000955,21.165688000000955,23.16587830000026,23.16587830000026,23.136359500000253,2.0,['period'],[1.3113773000004585],[None],23.136609999999564,23.16587830000026,25.142901000001075,,,,,,,,,,,,,,,,,,,,,,,,,,,,,,,,,,,,,,,,,,,,,,,,,,,,,,,,,,,,,,,,,,,,,,,,,,,,,,011,001,2024-06-11_14h46.18.963,ps,2023.2.3,30.059267858368383,2024-06-11 14h46.30.085257 -0400,
mini_blocks/3dp_wm_mini_block_3.xlsx,"*Break*
Entering the 3D WORKING MEMORY block
Rotation is Counter/Clockwise
Press <4> to continue",1,0,0,3D,p,120,False,True,2,sm3,100,220,output_pairs/3Dp_120_WM/3Dp_120_WM_02_1_sm_3_100deg.png,output_pairs/3Dp_120_WM/3Dp_120_WM_02_2_sm_3_220deg.png,328,comma,0,0,0,0,,,,,0,1,1,1,,,,,,,,,25.20648120000078,,,,,,,,,,,,,,,,,,,,,,,,,,,,,,,,,,,,,25.143109099999492,25.20648120000078,26.13272450000113,26.232739999999467,30.132372699999905,30.132372699999905,31.132889599999544,31.132889599999544,31.132889599999544,32.36633780000011,comma,1,1.2313338999992993,None,32.36653900000056,32.39892950000103,32.39892950000103,34.39935560000049,34.39935560000049,34.369810700000016,3.0,['slash'],[1.0215141000007861],[None],34.36996429999999,34.39935560000049,36.376618100001,,,,,,,,,,,,,,,,,,,,,,,,,,,,,,,,,,,,,,,,,,,,,,,,,,,,,,,,,,,,,,,,,,,,,,,,,,,,,,011,001,2024-06-11_14h46.18.963,ps,2023.2.3,30.059267858368383,2024-06-11 14h46.30.085257 -0400,
mini_blocks/3dp_wm_mini_block_3.xlsx,"*Break*
Entering the 3D WORKING MEMORY block
Rotation is Counter/Clockwise
Press <4> to continue",1,0,0,3D,p,180,False,True,26,obj6,120,300,output_pairs/3Dp_180_WM/3Dp_60_WM_26_1_obj_6_120deg.png,output_pairs/3Dp_180_WM/3Dp_60_WM_26_2_obj_6_300deg.png,502,comma,0,0,0,0,,,,,0,2,2,2,,,,,,,,,36.44133300000067,,,,,,,,,,,,,,,,,,,,,,,,,,,,,,,,,,,,,36.376792600000044,36.44133300000067,37.36609850000059,37.4660858999996,41.36590350000006,41.36590350000006,42.36619360000077,42.36619360000077,42.36619360000077,45.73339080000005,period,0,3.3514266000001953,None,45.73359460000029,45.76591410000037,45.76591410000037,47.766198299999814,47.766198299999814,47.73756730000059,3.0,['slash'],[1.470936800000345],[None],47.73773450000044,47.766198299999814,49.733204100000876,49.787517200000366,,,,,,,,,,,,,,,,,,,,,,,,,,,,,,,,,,,,,,,,,,,,,,,,,,,,,,,,,,,,,,,,,,,,,,,,,,,,,011,001,2024-06-11_14h46.18.963,ps,2023.2.3,30.059267858368383,2024-06-11 14h46.30.085257 -0400,
mini_blocks/3dp_wm_mini_block_3.xlsx,"*Break*
Entering the 3D WORKING MEMORY block
Rotation is Counter/Clockwise
Press <4> to continue",1,0,0,3D,p,180,True,True,18,obj1,20,200,output_pairs/3Dp_180_M_WM/3Dp_180_M_WM_18_1_obj_11_20deg.png,output_pairs/3Dp_180_M_WM/3Dp_180_M_WM_18_2_obj_11_200deg.png,34,period,0,0,0,0,,,,,0,3,3,3,,,,,,,,,49.787517200000366,,,,,,,,,,,,,,,,,,,,,,,,,,,,,,,,,,,,,49.73337259999971,49.787517200000366,50.7431231999999,50.810015700000804,54.76578410000002,54.76578410000002,55.76598759999979,55.76598759999979,55.76598759999979,58.60015220000059,comma,0,2.8068561000000045,None,58.60056690000056,58.632668600001125,58.632668600001125,60.63295990000006,60.63295990000006,60.60313429999951,2.0,['period'],[1.421119100001306],[None],60.60330199999953,60.63295990000006,62.60020640000039,62.65783209999972,,,,,,,,,,,,,,,,,,,,,,,,,,,,,,,,,,,,,,,,,,,,,,,,,,,,,,,,,,,,,,,,,,,,,,,,,,,,,011,001,2024-06-11_14h46.18.963,ps,2023.2.3,30.059267858368383,2024-06-11 14h46.30.085257 -0400,
mini_blocks/3dp_wm_mini_block_3.xlsx,"*Break*
Entering the 3D WORKING MEMORY block
Rotation is Counter/Clockwise
Press <4> to continue",1,0,0,3D,p,60,True,True,26,obj9,60,120,output_pairs/3Dp_60_M_WM/3Dp_60_M_WM_26_1_obj_9_60deg.png,output_pairs/3Dp_60_M_WM/3Dp_60_M_WM_26_2_obj_9_120deg.png,301,period,0,0,0,0,,,,,0,4,4,4,,,,,,,,,62.65783209999972,,,,,,,,,,,,,,,,,,,,,,,,,,,,,,,,,,,,,62.60038420000092,62.65783209999972,63.63290980000056,63.66614750000008,67.63297240000065,67.59959909999998,68.59966920000079,68.59966920000079,68.59966920000079,71.20014000000083,comma,0,2.596955799999705,None,71.2003464999998,71.23239400000057,71.23239400000057,73.23306090000005,73.23306090000005,73.2034992000008,2.0,['period'],[0.7329323000012664],[None],73.20364940000036,73.23306090000005,75.20012630000019,75.25428029999966,,,,,,,,,,,,,,,,,,,,,,,,,,,,,,,,,,,,,,,,,,,,,,,,,,,,,,,,,,,,,,,,,,,,,,,,,,,,,011,001,2024-06-11_14h46.18.963,ps,2023.2.3,30.059267858368383,2024-06-11 14h46.30.085257 -0400,
mini_blocks/3dp_wm_mini_block_3.xlsx,"*Break*
Entering the 3D WORKING MEMORY block
Rotation is Counter/Clockwise
Press <4> to continue",1,0,0,3D,p,0,True,True,3,obj1,0,0,output_pairs/3Dp_0_M_WM/3Dp_0_M_WM_03_1_obj_1_0deg.png,output_pairs/3Dp_0_M_WM/3Dp_0_M_WM_03_2_obj_1_0deg.png,531,period,0,0,0,0,,,,,0,5,5,5,,,,,,,,,75.25428029999966,,,,,,,,,,,,,,,,,,,,,,,,,,,,,,,,,,,,,75.20030150000093,75.25428029999966,76.19952960000046,76.26632190000055,80.19976610000049,80.19976610000049,81.20996490000107,81.20996490000107,81.20996490000107,83.133710600001,period,1,1.890180299998974,None,83.13391899999988,83.16587170000093,83.16587170000093,85.16626560000077,85.16626560000077,85.13680779999959,2.0,['period'],[0.7271559000000707],[None],85.13697309999952,85.16626560000077,87.13335999999981,87.18978509999943,,,,,,,,,,,,,,,,,,,,,,,,,,,,,,,,,,,,,,,,,,,,,,,,,,,,,,,,,,,,,,,,,,,,,,,,,,,,,011,001,2024-06-11_14h46.18.963,ps,2023.2.3,30.059267858368383,2024-06-11 14h46.30.085257 -0400,
mini_blocks/3dp_wm_mini_block_3.xlsx,"*Break*
Entering the 3D WORKING MEMORY block
Rotation is Counter/Clockwise
Press <4> to continue",1,0,0,3D,p,120,False,True,26,obj1,0,240,output_pairs/3Dp_120_WM/3Dp_120_WM_26_1_obj_13_0deg.png,output_pairs/3Dp_120_WM/3Dp_120_WM_26_2_obj_13_240deg.png,342,comma,0,0,0,0,,,,,0,6,6,6,,,,,,,,,87.18978509999943,,,,,,,,,,,,,,,,,,,,,,,,,,,,,,,,,,,,,87.1335194000003,87.18978509999943,88.13328329999968,88.2098788000003,92.1331556999994,92.1331556999994,93.13306200000079,93.13306200000079,93.13306200000079,95.90032369999972,comma,1,2.7590165000001434,None,95.90052800000012,95.93281709999974,95.93281709999974,97.93301659999997,97.93301659999997,97.90380870000081,3.0,['slash'],[0.9122976999988168],[None],97.90395949999947,97.93301659999997,99.90018880000025,99.94773900000109,,,,,,,,,,,,,,,,,,,,,,,,,,,,,,,,,,,,,,,,,,,,,,,,,,,,,,,,,,,,,,,,,,,,,,,,,,,,,011,001,2024-06-11_14h46.18.963,ps,2023.2.3,30.059267858368383,2024-06-11 14h46.30.085257 -0400,
mini_blocks/3dp_wm_mini_block_3.xlsx,"*Break*
Entering the 3D WORKING MEMORY block
Rotation is Counter/Clockwise
Press <4> to continue",1,0,0,3D,p,0,False,True,5,sm2,280,280,output_pairs/3Dp_0_WM/3Dp_0_WM_05_1_sm_2_280deg.png,output_pairs/3Dp_0_WM/3Dp_0_WM_05_2_sm_2_280deg.png,113,comma,0,0,0,0,,,,,0,7,7,7,,,,,,,,,99.94773900000109,,,,,,,,,,,,,,,,,,,,,,,,,,,,,,,,,,,,,99.90036599999985,99.94773900000109,100.89995439999984,100.97471369999948,104.89951819999987,104.89951819999987,105.89974220000113,105.89974220000113,105.89974220000113,106.90073620000112,comma,1,0.9694003000004159,None,106.90094540000064,106.93318189999991,106.93318189999991,108.93281659999957,108.93281659999957,108.9031429000006,4.0,['rshift'],[1.071548600000824],[None],108.90329530000054,108.93281659999957,110.9005427000011,110.94746049999958,,,,,,,,,,,,,,,,,,,,,,,,,,,,,,,,,,,,,,,,,,,,,,,,,,,,,,,,,,,,,,,,,,,,,,,,,,,,,011,001,2024-06-11_14h46.18.963,ps,2023.2.3,30.059267858368383,2024-06-11 14h46.30.085257 -0400,
mini_blocks/3dp_wm_mini_block_3.xlsx,"*Break*
Entering the 3D WORKING MEMORY block
Rotation is Counter/Clockwise
Press <4> to continue",1,0,0,3D,p,0,False,True,7,obj8,240,240,output_pairs/3Dp_0_WM/3Dp_0_WM_07_1_obj_8_240deg.png,output_pairs/3Dp_0_WM/3Dp_0_WM_07_2_obj_8_240deg.png,126,comma,0,0,0,0,,,,,0,8,8,8,,,,,,,,,110.94746049999958,,,,,,,,,,,,,,,,,,,,,,,,,,,,,,,,,,,,,110.90071470000112,110.94746049999958,111.91015400000106,111.9666926000009,115.93318650000037,115.93318650000037,116.93299610000031,116.89960210000027,116.89960210000027,117.76723049999964,comma,1,0.8651887999985775,None,117.76742320000085,117.7997207999997,117.7997207999997,119.7993176,119.7993176,119.77052220000041,4.0,['rshift'],[0.26851890000034473],[None],119.77074999999968,119.7993176,121.76713820000077,121.81415770000058,,,,,,,,,,,,,,,,,,,,,,,,,,,,,,,,,,,,,,,,,,,,,,,,,,,,,,,,,,,,,,,,,,,,,,,,,,,,,011,001,2024-06-11_14h46.18.963,ps,2023.2.3,30.059267858368383,2024-06-11 14h46.30.085257 -0400,
mini_blocks/3dp_wm_mini_block_3.xlsx,"*Break*
Entering the 3D WORKING MEMORY block
Rotation is Counter/Clockwise
Press <4> to continue",1,0,0,3D,p,180,True,True,13,obj2,100,280,output_pairs/3Dp_180_M_WM/3Dp_180_M_WM_13_1_obj_2_100deg.png,output_pairs/3Dp_180_M_WM/3Dp_180_M_WM_13_2_obj_2_280deg.png,57,period,0,0,0,0,,,,,0,9,9,9,,,,,,,,,121.81415770000058,,,,,,,,,,,,,,,,,,,,,,,,,,,,,,,,,,,,,121.76731230000041,121.81415770000058,122.77696370000012,122.8332188000004,126.79989550000028,126.766587600001,127.77696920000017,127.77696920000017,127.77696920000017,130.86737340000036,period,1,3.0762116000005335,None,130.86757410000064,130.89985119999983,130.89985119999983,132.91029610000078,132.91029610000078,132.87053860000015,1.0,['comma'],[1.4413196999994398],[None],132.87069929999961,132.91029610000078,134.87704200000007,,,,,,,,,,,,,,,,,,,,,,,,,,,,,,,,,,,,,,,,,,,,,,,,,,,,,,,,,,,,,,,,,,,,,,,,,,,,,,011,001,2024-06-11_14h46.18.963,ps,2023.2.3,30.059267858368383,2024-06-11 14h46.30.085257 -0400,
mini_blocks/3dp_wm_mini_block_3.xlsx,"*Break*
Entering the 3D WORKING MEMORY block
Rotation is Counter/Clockwise
Press <4> to continue",1,0,0,3D,p,60,False,True,11,obj2,140,200,output_pairs/3Dp_60_WM/3Dp_60_WM_11_1_obj_2_140deg.png,output_pairs/3Dp_60_WM/3Dp_60_WM_11_2_obj_2_200deg.png,384,comma,0,0,0,0,,,,,0,10,10,10,,,,,,,,,134.92885990000104,,,,,,,,,,,,,,,,,,,,,,,,,,,,,,,,,,,,,134.87722369999938,134.92885990000104,135.89990930000022,135.93325209999966,139.89968659999977,139.89968659999977,140.90001110000048,140.86670390000108,140.86670390000108,143.96731920000093,period,0,3.074680300000182,None,143.96752890000062,143.99950080000053,143.99950080000053,145.99984330000007,145.99984330000007,145.97076390000075,2.0,['period'],[0.6050457999990613],[None],145.97096020000026,145.99984330000007,147.96698250000009,148.0320556000006,,,,,,,,,,,,,,,,,,,,,,,,,,,,,,,,,,,,,,,,,,,,,,,,,,,,,,,,,,,,,,,,,,,,,,,,,,,,,011,001,2024-06-11_14h46.18.963,ps,2023.2.3,30.059267858368383,2024-06-11 14h46.30.085257 -0400,
mini_blocks/3dp_wm_mini_block_3.xlsx,"*Break*
Entering the 3D WORKING MEMORY block
Rotation is Counter/Clockwise
Press <4> to continue",1,0,0,3D,p,180,False,True,17,obj1,40,220,output_pairs/3Dp_180_WM/3Dp_60_WM_17_1_obj_1_40deg.png,output_pairs/3Dp_180_WM/3Dp_60_WM_17_2_obj_1_220deg.png,493,comma,0,0,0,0,,,,,0,11,11,11,,,,,,,,,148.0320556000006,,,,,,,,,,,,,,,,,,,,,,,,,,,,,,,,,,,,,147.967166800001,148.0320556000006,148.99979710000116,149.0331098000006,152.99998520000008,152.9666804999997,153.97713490000024,153.97713490000024,153.97713490000024,155.96743070000048,comma,1,1.988056800000777,None,155.96762690000105,156.00000440000076,156.00000440000076,157.99943789999998,157.99943789999998,157.97000389999994,None,None,,,157.97009310000067,157.99943789999998,159.96693460000097,160.03907160000017,,,,,,,,,,,,,,,,,,,,,,,,,,,,,,,,,,,,,,,,,,,,,,,,,,,,,,,,,,,,,,,,,,,,,,,,,,,,,011,001,2024-06-11_14h46.18.963,ps,2023.2.3,30.059267858368383,2024-06-11 14h46.30.085257 -0400,
mini_blocks/3dp_wm_mini_block_3.xlsx,"*Break*
Entering the 3D WORKING MEMORY block
Rotation is Counter/Clockwise
Press <4> to continue",1,0,0,3D,p,120,True,True,25,sm2,80,320,output_pairs/3Dp_120_M_WM/3Dp_120_M_WM_25_1_sm_2_80deg.png,output_pairs/3Dp_120_M_WM/3Dp_120_M_WM_25_2_sm_2_320deg.png,656,period,0,0,0,0,,,,,0,12,12,12,,,,,,,,,160.03907160000017,,,,,,,,,,,,,,,,,,,,,,,,,,,,,,,,,,,,,159.96711180000057,160.03907160000017,160.96683880000091,161.07106329999988,164.96666229999937,164.96666229999937,165.96679010000116,165.96679010000116,165.96679010000116,168.76745140000094,period,1,2.7984030000006896,None,168.7676517,168.8001045000001,168.8001045000001,170.80002299999978,170.80002299999978,170.77045240000007,2.0,['period'],[1.1814219999996567],[None],170.77060619999975,170.80002299999978,172.76733240000067,172.8213334000011,,,,,,,,,,,,,,,,,,,,,,,,,,,,,,,,,,,,,,,,,,,,,,,,,,,,,,,,,,,,,,,,,,,,,,,,,,,,,011,001,2024-06-11_14h46.18.963,ps,2023.2.3,30.059267858368383,2024-06-11 14h46.30.085257 -0400,
mini_blocks/3dp_wm_mini_block_3.xlsx,"*Break*
Entering the 3D WORKING MEMORY block
Rotation is Counter/Clockwise
Press <4> to continue",1,0,0,3D,p,60,True,True,16,obj4,60,0,output_pairs/3Dp_60_M_WM/3Dp_60_M_WM_16_1_obj_4_60deg.png,output_pairs/3Dp_60_M_WM/3Dp_60_M_WM_16_2_obj_4_0deg.png,296,period,0,0,0,0,,,,,0,13,13,13,,,,,,,,,172.8213334000011,,,,,,,,,,,,,,,,,,,,,,,,,,,,,,,,,,,,,172.76753850000023,172.8213334000011,173.76673160000064,173.83353720000014,177.76653220000117,177.79980740000065,178.8000288000003,178.7668321000001,178.7668321000001,181.40067230000022,period,1,2.623045700000148,None,181.40088500000093,181.43323220000093,181.43323220000093,183.43352810000033,183.43352810000033,183.4039444000009,2.0,['period'],[1.7239074000008259],[None],183.40416519999962,183.43352810000033,185.40070229999947,185.45631250000042,,,,,,,,,,,,,,,,,,,,,,,,,,,,,,,,,,,,,,,,,,,,,,,,,,,,,,,,,,,,,,,,,,,,,,,,,,,,,011,001,2024-06-11_14h46.18.963,ps,2023.2.3,30.059267858368383,2024-06-11 14h46.30.085257 -0400,
mini_blocks/3dp_wm_mini_block_3.xlsx,"*Break*
Entering the 3D WORKING MEMORY block
Rotation is Counter/Clockwise
Press <4> to continue",1,0,0,3D,p,60,False,True,23,obj8,20,80,output_pairs/3Dp_60_WM/3Dp_60_WM_23_1_obj_8_20deg.png,output_pairs/3Dp_60_WM/3Dp_60_WM_23_2_obj_8_80deg.png,402,comma,0,0,0,0,,,,,0,14,14,14,,,,,,,,,185.45631250000042,,,,,,,,,,,,,,,,,,,,,,,,,,,,,,,,,,,,,185.40087739999944,185.45631250000042,186.4000656999997,186.46705780000048,190.40011690000028,190.40011690000028,191.41066540000065,191.41066540000065,191.41066540000065,192.70060560000093,period,0,1.2665374999996857,None,192.70081650000066,192.73300890000064,192.73300890000064,194.7335604,194.7335604,194.70385580000038,2.0,['period'],[0.9606559000003472],[None],194.7040023999998,194.7335604,196.70078250000006,196.74751370000013,,,,,,,,,,,,,,,,,,,,,,,,,,,,,,,,,,,,,,,,,,,,,,,,,,,,,,,,,,,,,,,,,,,,,,,,,,,,,011,001,2024-06-11_14h46.18.963,ps,2023.2.3,30.059267858368383,2024-06-11 14h46.30.085257 -0400,
mini_blocks/3dp_wm_mini_block_3.xlsx,"*Break*
Entering the 3D WORKING MEMORY block
Rotation is Counter/Clockwise
Press <4> to continue",1,0,0,3D,p,0,True,True,7,sm3,220,220,output_pairs/3Dp_0_M_WM/3Dp_0_M_WM_07_1_sm_3_220deg.png,output_pairs/3Dp_0_M_WM/3Dp_0_M_WM_07_2_sm_3_220deg.png,539,period,0,0,0,0,,,,,0,15,15,15,,,,,,,,,196.74751370000013,,,,,,,,,,,,,,,,,,,,,,,,,,,,,,,,,,,,,196.70095899999978,196.74751370000013,197.7001134000002,197.7668775000002,201.700179200001,201.700179200001,202.70023369999944,202.70023369999944,202.70023369999944,203.76749879999988,period,1,1.0569482000009884,None,203.76770620000025,203.79984669999976,203.79984669999976,205.79986649999955,205.79986649999955,205.77092000000084,4.0,['rshift'],[1.2442921999991086],[None],205.7710833000001,205.79986649999955,207.77738789999967,,,,,,,,,,,,,,,,,,,,,,,,,,,,,,,,,,,,,,,,,,,,,,,,,,,,,,,,,,,,,,,,,,,,,,,,,,,,,,011,001,2024-06-11_14h46.18.963,ps,2023.2.3,30.059267858368383,2024-06-11 14h46.30.085257 -0400,
mini_blocks/3dp_wm_mini_block_3.xlsx,"*Break*
Entering the 3D WORKING MEMORY block
Rotation is Counter/Clockwise
Press <4> to continue",1,0,0,,,,,,,,,,,,,,0,0,0,0,,,,,,,,,,,,,,,,,,,,,,,,,,,,,,,,,,,,,,,,,,,,,,,,,,,,,,,,,,,,,,,,,,,,,,,,,,,,,,,,,,207.77745359999972,207.81065979999948,207.81065979999948,215.8019218999998,4.0,"['rshift', 'rshift']","[2.8902192000005016, 3.8577930999999808]","[None, None]",215.80219670000042,215.8022249000005,None,,,,,,,,,,,,,,,,,,,,,,,,,,,,,,,,,,,,,,,,,,,,,,,,,,,,,,,,,,,,,,,,,,011,001,2024-06-11_14h46.18.963,ps,2023.2.3,30.059267858368383,2024-06-11 14h46.30.085257 -0400,
mini_blocks/2d_wm_mini_block_1.xlsx,"*Break*
Entering the 2D WORKING MEMORY block
Rotation is Counter/Clockwise
Press <4> to continue
               ",1,0,0,2D,None,60,False,True,2,obj9,140,80,output_pairs/2D_60_WM/2D_60_WM_02_1_obj_9_140deg.png,output_pairs/2D_60_WM/2D_60_WM_02_2_obj_9_80deg.png,140,comma,0,1,1,1,,,,,0,0,0,0,,,,,,,,,217.66994950000117,,,,,,,,,,,,,,,,,,,,,,,,,,,,,,215.8023718000004,215.83333529999982,215.83333529999982,217.60117440000067,rshift,1.7635464999984833,None,217.61375989999942,217.66994950000117,218.61048260000098,218.7106678,222.6335835000009,222.60049780000008,223.6103495999996,223.6103495999996,223.6103495999996,224.6676155999994,comma,1,1.02775660000043,None,224.66793479999978,224.69987150000088,224.69987150000088,226.70031390000076,226.70031390000076,226.6711851,4.0,['rshift'],[0.4643981999997777],[None],226.67142779999995,226.70031390000076,228.6775164999999,,,,,,,,,,,,,,,,,,,,,,,,,,,,,,,,,,,,,,,,,,,,,,,,,,,,,,,,,,,,,,,,,,,,,,,,,,,,,,011,001,2024-06-11_14h46.18.963,ps,2023.2.3,30.059267858368383,2024-06-11 14h46.30.085257 -0400,
mini_blocks/2d_wm_mini_block_1.xlsx,"*Break*
Entering the 2D WORKING MEMORY block
Rotation is Counter/Clockwise
Press <4> to continue
               ",1,0,0,2D,None,0,True,True,9,obj1,100,100,output_pairs/2D_0_M_WM/2D_0_M_WM_09_1_obj_11_100deg.png,output_pairs/2D_0_M_WM/2D_0_M_WM_09_2_obj_11_100deg.png,690,period,0,1,1,1,,,,,0,1,1,1,,,,,,,,,228.74212869999974,,,,,,,,,,,,,,,,,,,,,,,,,,,,,,,,,,,,,228.67774409999947,228.74212869999974,229.70034140000098,229.7670025999996,233.70040030000018,233.6671234000005,234.66720420000092,234.66720420000092,234.66720420000092,235.90101760000107,period,1,1.2182794000000285,None,235.90122640000118,235.93325279999954,235.93325279999954,237.93348719999995,237.93348719999995,237.9036827,4.0,['rshift'],[0.919660899999144],[None],237.90382809999937,237.93348719999995,239.91088239999954,,,,,,,,,,,,,,,,,,,,,,,,,,,,,,,,,,,,,,,,,,,,,,,,,,,,,,,,,,,,,,,,,,,,,,,,,,,,,,011,001,2024-06-11_14h46.18.963,ps,2023.2.3,30.059267858368383,2024-06-11 14h46.30.085257 -0400,
mini_blocks/2d_wm_mini_block_1.xlsx,"*Break*
Entering the 2D WORKING MEMORY block
Rotation is Counter/Clockwise
Press <4> to continue
               ",1,0,0,2D,None,60,True,True,15,obj7,80,20,output_pairs/2D_60_M_WM/2D_60_M_WM_15_1_obj_7_80deg.png,output_pairs/2D_60_M_WM/2D_60_M_WM_15_2_obj_7_20deg.png,638,period,0,1,1,1,,,,,0,2,2,2,,,,,,,,,239.9759083000008,,,,,,,,,,,,,,,,,,,,,,,,,,,,,,,,,,,,,239.91111420000016,239.9759083000008,240.90029350000077,241.0003125000003,244.9000515000007,244.9000515000007,245.90475669999978,245.90475669999978,245.90475669999978,247.04463810000016,period,1,1.1236394999996264,None,247.0448348000009,247.0774266999997,247.0774266999997,,,249.0687708000005,4.0,['rshift'],[0.5357989999993151],[None],249.06892909999988,249.1001997000003,251.0673526999999,,,,,,,,,,,,,,,,,,,,,,,,,,,,,,,,,,,,,,,,,,,,,,,,,,,,,,,,,,,,,,,,,,,,,,,,,,,,,,011,001,2024-06-11_14h46.18.963,ps,2023.2.3,30.059267858368383,2024-06-11 14h46.30.085257 -0400,
mini_blocks/2d_wm_mini_block_1.xlsx,"*Break*
Entering the 2D WORKING MEMORY block
Rotation is Counter/Clockwise
Press <4> to continue
               ",1,0,0,2D,None,120,False,True,12,obj1,300,60,output_pairs/2D_120_WM/2D_120_WM_12_1_obj_11_300deg.png,output_pairs/2D_120_WM/2D_120_WM_12_2_obj_11_60deg.png,160,comma,0,1,1,1,,,,,0,3,3,3,,,,,,,,,251.1251898999999,,,,,,,,,,,,,,,,,,,,,,,,,,,,,,,,,,,,,251.06761519999964,251.1251898999999,252.06699310000113,252.1338833000009,256.0666966000008,256.0666966000008,257.0672322999999,257.0672322999999,257.0672322999999,260.1677075000007,period,0,3.073765799999819,None,260.16791190000004,260.20030439999937,260.20030439999937,262.2003889000007,262.2003889000007,262.1712685000002,None,None,,,262.1713598000006,262.2003889000007,264.16773289999946,264.2250715000009,,,,,,,,,,,,,,,,,,,,,,,,,,,,,,,,,,,,,,,,,,,,,,,,,,,,,,,,,,,,,,,,,,,,,,,,,,,,,011,001,2024-06-11_14h46.18.963,ps,2023.2.3,30.059267858368383,2024-06-11 14h46.30.085257 -0400,
mini_blocks/2d_wm_mini_block_1.xlsx,"*Break*
Entering the 2D WORKING MEMORY block
Rotation is Counter/Clockwise
Press <4> to continue
               ",1,0,0,2D,None,180,True,True,16,obj1,200,20,output_pairs/2D_180_M_WM/2D_180_M_WM_16_1_obj_10_200deg.png,output_pairs/2D_180_M_WM/2D_180_M_WM_16_2_obj_10_20deg.png,426,period,0,1,1,1,,,,,0,4,4,4,,,,,,,,,264.2250715000009,,,,,,,,,,,,,,,,,,,,,,,,,,,,,,,,,,,,,264.1679065999997,264.2250715000009,265.17756610000106,265.2337676999996,269.2001500999995,269.2001500999995,270.2000786000008,270.2000786000008,270.2000786000008,271.50135989999944,period,1,1.2681458000006387,None,271.50156179999976,271.53386150000006,271.53386150000006,273.5340178000006,273.5340178000006,273.5044861000006,2.0,['period'],[1.6476141000002826],[None],273.50463239999954,273.5340178000006,275.50110080000013,275.55777390000003,,,,,,,,,,,,,,,,,,,,,,,,,,,,,,,,,,,,,,,,,,,,,,,,,,,,,,,,,,,,,,,,,,,,,,,,,,,,,011,001,2024-06-11_14h46.18.963,ps,2023.2.3,30.059267858368383,2024-06-11 14h46.30.085257 -0400,
mini_blocks/2d_wm_mini_block_1.xlsx,"*Break*
Entering the 2D WORKING MEMORY block
Rotation is Counter/Clockwise
Press <4> to continue
               ",1,0,0,2D,None,0,False,True,31,sm2,160,160,output_pairs/2D_0_WM/2D_0_WM_31_1_SM2_160deg.png,output_pairs/2D_0_WM/2D_0_WM_31_2_SM2_160deg.png,198,comma,0,1,1,1,,,,,0,5,5,5,,,,,,,,,275.55777390000003,,,,,,,,,,,,,,,,,,,,,,,,,,,,,,,,,,,,,275.50127600000087,275.55777390000003,276.54427639999994,276.56744079999953,280.5670530999996,280.5336900000002,281.5340462000004,281.5049180999995,281.5049180999995,282.36808980000023,comma,1,0.8612778000006074,None,282.368287700001,282.40069740000035,282.40069740000035,284.4000758000002,284.4000758000002,284.37130439999964,4.0,['rshift'],[0.3479016999990563],[None],284.37148139999954,284.4000758000002,286.36794270000064,286.4170033999999,,,,,,,,,,,,,,,,,,,,,,,,,,,,,,,,,,,,,,,,,,,,,,,,,,,,,,,,,,,,,,,,,,,,,,,,,,,,,011,001,2024-06-11_14h46.18.963,ps,2023.2.3,30.059267858368383,2024-06-11 14h46.30.085257 -0400,
mini_blocks/2d_wm_mini_block_1.xlsx,"*Break*
Entering the 2D WORKING MEMORY block
Rotation is Counter/Clockwise
Press <4> to continue
               ",1,0,0,2D,None,60,False,True,16,obj1,200,260,output_pairs/2D_60_WM/2D_60_WM_16_1_obj_12_200deg.png,output_pairs/2D_60_WM/2D_60_WM_16_2_obj_12_260deg.png,132,comma,0,1,1,1,,,,,0,6,6,6,,,,,,,,,286.4170033999999,,,,,,,,,,,,,,,,,,,,,,,,,,,,,,,,,,,,,286.3681145999999,286.4170033999999,287.3777829999999,287.44420360000004,291.40070320000086,291.40070320000086,292.4007491000011,292.3674618999994,292.3674618999994,293.434577,period,0,1.0376272999983485,None,293.4347856000004,293.46699360000093,293.46699360000093,295.4672559999999,295.4672559999999,295.4376666999997,3.0,['slash'],[0.714279700001498],[None],295.437820000001,295.4672559999999,297.44433000000026,,,,,,,,,,,,,,,,,,,,,,,,,,,,,,,,,,,,,,,,,,,,,,,,,,,,,,,,,,,,,,,,,,,,,,,,,,,,,,011,001,2024-06-11_14h46.18.963,ps,2023.2.3,30.059267858368383,2024-06-11 14h46.30.085257 -0400,
mini_blocks/2d_wm_mini_block_1.xlsx,"*Break*
Entering the 2D WORKING MEMORY block
Rotation is Counter/Clockwise
Press <4> to continue
               ",1,0,0,2D,None,120,False,True,30,sm1,200,320,output_pairs/2D_120_WM/2D_120_WM_30_1_SM1_200deg.png,output_pairs/2D_120_WM/2D_120_WM_30_2_SM1_320deg.png,187,comma,0,1,1,1,,,,,0,7,7,7,,,,,,,,,297.5072985000006,,,,,,,,,,,,,,,,,,,,,,,,,,,,,,,,,,,,,297.4445101000001,297.5072985000006,298.43399839999984,298.5339640000002,302.4338710000011,302.4674070000001,303.46756339999956,303.43407149999985,303.43407149999985,305.9346265000004,period,0,2.483372700000473,None,305.93483709999964,305.9668677999998,305.9668677999998,307.9673994999994,307.9673994999994,307.9377693999995,2.0,['period'],[0.9585795999992115],[None],307.9379143999995,307.9673994999994,309.9346189000007,309.98147620000054,,,,,,,,,,,,,,,,,,,,,,,,,,,,,,,,,,,,,,,,,,,,,,,,,,,,,,,,,,,,,,,,,,,,,,,,,,,,,011,001,2024-06-11_14h46.18.963,ps,2023.2.3,30.059267858368383,2024-06-11 14h46.30.085257 -0400,
mini_blocks/2d_wm_mini_block_1.xlsx,"*Break*
Entering the 2D WORKING MEMORY block
Rotation is Counter/Clockwise
Press <4> to continue
               ",1,0,0,2D,None,180,True,True,3,sm1,0,180,output_pairs/2D_180_M_WM/2D_180_M_WM_03_1_SM1_0deg.png,output_pairs/2D_180_M_WM/2D_180_M_WM_03_2_SM1_180deg.png,433,period,0,1,1,1,,,,,0,8,8,8,,,,,,,,,309.98147620000054,,,,,,,,,,,,,,,,,,,,,,,,,,,,,,,,,,,,,309.9347962000011,309.98147620000054,310.93406250000044,311.0007734999999,314.93405019999955,314.93405019999955,315.9340456000009,315.9340456000009,315.9340456000009,317.7677855000002,period,1,1.8081311999994796,None,317.76802450000105,317.8001170999996,317.8001170999996,319.80069100000037,319.80069100000037,319.7713076,3.0,['slash'],[0.9894562999998016],[None],319.77146340000036,319.80069100000037,321.7680565999999,321.8372431000007,,,,,,,,,,,,,,,,,,,,,,,,,,,,,,,,,,,,,,,,,,,,,,,,,,,,,,,,,,,,,,,,,,,,,,,,,,,,,011,001,2024-06-11_14h46.18.963,ps,2023.2.3,30.059267858368383,2024-06-11 14h46.30.085257 -0400,
mini_blocks/2d_wm_mini_block_1.xlsx,"*Break*
Entering the 2D WORKING MEMORY block
Rotation is Counter/Clockwise
Press <4> to continue
               ",1,0,0,2D,None,60,True,True,26,sm4,320,20,output_pairs/2D_60_M_WM/2D_60_M_WM_26_1_SM4_320deg.png,output_pairs/2D_60_M_WM/2D_60_M_WM_26_2_SM4_20deg.png,626,period,0,1,1,1,,,,,0,9,9,9,,,,,,,,,321.8372431000007,,,,,,,,,,,,,,,,,,,,,,,,,,,,,,,,,,,,,321.76823259999946,321.8372431000007,322.76748620000035,322.86750609999945,326.7675488999994,326.7675488999994,327.76749349999955,327.76749349999955,327.76749349999955,328.9016965999999,period,1,1.1260538999995333,None,328.9018913,328.9342678000012,328.9342678000012,330.93362610000077,330.93362610000077,330.90448920000017,3.0,['slash'],[0.6080533000003925],[None],330.90464580000116,330.93362610000077,332.9014433000011,332.9514108000003,,,,,,,,,,,,,,,,,,,,,,,,,,,,,,,,,,,,,,,,,,,,,,,,,,,,,,,,,,,,,,,,,,,,,,,,,,,,,011,001,2024-06-11_14h46.18.963,ps,2023.2.3,30.059267858368383,2024-06-11 14h46.30.085257 -0400,
mini_blocks/2d_wm_mini_block_1.xlsx,"*Break*
Entering the 2D WORKING MEMORY block
Rotation is Counter/Clockwise
Press <4> to continue
               ",1,0,0,2D,None,180,False,True,24,obj2,80,260,output_pairs/2D_180_WM/2D_180_WM_24_1_obj_2_80deg.png,output_pairs/2D_180_WM/2D_180_WM_24_2_obj_2_260deg.png,710,comma,0,1,1,1,,,,,0,10,10,10,,,,,,,,,332.9514108000003,,,,,,,,,,,,,,,,,,,,,,,,,,,,,,,,,,,,,332.90162109999983,332.9514108000003,333.9010462999995,333.97787079999944,337.9009351000004,337.9009351000004,338.91127770000094,338.91127770000094,338.91127770000094,339.9681237999994,period,0,1.0301438000005874,None,339.96836220000114,340.00039000000106,340.00039000000106,342.00514660000044,342.00514660000044,341.97153439999965,3.0,['slash'],[0.3568009999999049],[None],341.9716817000008,342.00514660000044,344.0010268999995,,,,,,,,,,,,,,,,,,,,,,,,,,,,,,,,,,,,,,,,,,,,,,,,,,,,,,,,,,,,,,,,,,,,,,,,,,,,,,011,001,2024-06-11_14h46.18.963,ps,2023.2.3,30.059267858368383,2024-06-11 14h46.30.085257 -0400,
mini_blocks/2d_wm_mini_block_1.xlsx,"*Break*
Entering the 2D WORKING MEMORY block
Rotation is Counter/Clockwise
Press <4> to continue
               ",1,0,0,2D,None,0,True,True,24,obj3,260,260,output_pairs/2D_0_M_WM/2D_0_M_WM_24_1_obj_3_260deg.png,output_pairs/2D_0_M_WM/2D_0_M_WM_24_2_obj_3_260deg.png,686,period,0,1,1,1,,,,,0,11,11,11,,,,,,,,,344.0594799999999,,,,,,,,,,,,,,,,,,,,,,,,,,,,,,,,,,,,,344.0012201999998,344.0594799999999,344.9675344999996,345.0675434999994,348.9676701999997,348.9676701999997,349.9779665999995,349.9779665999995,349.9779665999995,351.50147880000077,period,1,1.5147832000002381,None,351.5017088000004,351.53392410000015,351.53392410000015,353.5343326000002,353.5343326000002,353.50548979999985,3.0,['slash'],[1.8232561000004353],[None],353.50565690000076,353.5343326000002,355.501506300001,355.5631107999998,,,,,,,,,,,,,,,,,,,,,,,,,,,,,,,,,,,,,,,,,,,,,,,,,,,,,,,,,,,,,,,,,,,,,,,,,,,,,011,001,2024-06-11_14h46.18.963,ps,2023.2.3,30.059267858368383,2024-06-11 14h46.30.085257 -0400,
mini_blocks/2d_wm_mini_block_1.xlsx,"*Break*
Entering the 2D WORKING MEMORY block
Rotation is Counter/Clockwise
Press <4> to continue
               ",1,0,0,2D,None,180,False,True,25,obj1,60,240,output_pairs/2D_180_WM/2D_180_WM_25_1_obj_14_60deg.png,output_pairs/2D_180_WM/2D_180_WM_25_2_obj_14_240deg.png,735,comma,0,1,1,1,,,,,0,12,12,12,,,,,,,,,355.5631107999998,,,,,,,,,,,,,,,,,,,,,,,,,,,,,,,,,,,,,355.50168420000045,355.5631107999998,356.50086940000074,356.56750529999954,360.5009635000006,360.5009635000006,361.5011993999997,361.5011993999997,361.5011993999997,363.4015202999999,period,0,1.8883834000007482,None,363.4017347000008,363.4338571999997,363.4338571999997,365.43431969999983,365.43431969999983,365.40492989999984,2.0,"['period', 'period']","[0.8674587999994401, 1.682495299999573]","[None, None]",365.4050772999999,365.43431969999983,367.4014755999997,367.46080660000007,,,,,,,,,,,,,,,,,,,,,,,,,,,,,,,,,,,,,,,,,,,,,,,,,,,,,,,,,,,,,,,,,,,,,,,,,,,,,011,001,2024-06-11_14h46.18.963,ps,2023.2.3,30.059267858368383,2024-06-11 14h46.30.085257 -0400,
mini_blocks/2d_wm_mini_block_1.xlsx,"*Break*
Entering the 2D WORKING MEMORY block
Rotation is Counter/Clockwise
Press <4> to continue
               ",1,0,0,2D,None,120,True,True,2,obj2,240,0,output_pairs/2D_120_M_WM/2D_120_M_WM_02_1_obj_2_240deg.png,output_pairs/2D_120_M_WM/2D_120_M_WM_02_2_obj_2_0deg.png,240,period,0,1,1,1,,,,,0,13,13,13,,,,,,,,,367.46080660000007,,,,,,,,,,,,,,,,,,,,,,,,,,,,,,,,,,,,,367.4016700000011,367.46080660000007,368.401323600001,368.46782019999955,372.40110170000116,372.40110170000116,373.4012350000012,373.4012350000012,373.4012350000012,375.33495290000064,period,1,1.9320240000015474,None,375.3351691000007,375.36736980000023,375.36736980000023,377.3676856000002,377.3676856000002,377.3382491000011,2.0,['period'],[0.83701690000089],[None],377.3383971000003,377.3676856000002,379.33485850000034,379.38802810000016,,,,,,,,,,,,,,,,,,,,,,,,,,,,,,,,,,,,,,,,,,,,,,,,,,,,,,,,,,,,,,,,,,,,,,,,,,,,,011,001,2024-06-11_14h46.18.963,ps,2023.2.3,30.059267858368383,2024-06-11 14h46.30.085257 -0400,
mini_blocks/2d_wm_mini_block_1.xlsx,"*Break*
Entering the 2D WORKING MEMORY block
Rotation is Counter/Clockwise
Press <4> to continue
               ",1,0,0,2D,None,120,True,True,16,obj3,100,220,output_pairs/2D_120_M_WM/2D_120_M_WM_16_1_obj_3_100deg.png,output_pairs/2D_120_M_WM/2D_120_M_WM_16_2_obj_3_220deg.png,238,period,0,1,1,1,,,,,0,14,14,14,,,,,,,,,379.38802810000016,,,,,,,,,,,,,,,,,,,,,,,,,,,,,,,,,,,,,379.33502690000023,379.38802810000016,380.3341813999996,380.4197075000011,384.3344066999998,384.3344066999998,385.3343404999996,385.3343404999996,385.3343404999996,388.3681639000006,period,1,3.0153172000009363,None,388.3683706000011,388.4008709999998,388.4008709999998,390.4011513000005,390.4011513000005,390.37152349999997,2.0,['period'],[1.0201347000001988],[None],390.3716672999999,390.4011513000005,392.3683643000004,392.4201152000005,,,,,,,,,,,,,,,,,,,,,,,,,,,,,,,,,,,,,,,,,,,,,,,,,,,,,,,,,,,,,,,,,,,,,,,,,,,,,011,001,2024-06-11_14h46.18.963,ps,2023.2.3,30.059267858368383,2024-06-11 14h46.30.085257 -0400,
mini_blocks/2d_wm_mini_block_1.xlsx,"*Break*
Entering the 2D WORKING MEMORY block
Rotation is Counter/Clockwise
Press <4> to continue
               ",1,0,0,2D,None,0,False,True,25,obj1,240,240,output_pairs/2D_0_WM/2D_0_WM_25_1_obj_14_240deg.png,output_pairs/2D_0_WM/2D_0_WM_25_2_obj_14_240deg.png,193,comma,0,1,1,1,,,,,0,15,15,15,,,,,,,,,392.4201152000005,,,,,,,,,,,,,,,,,,,,,,,,,,,,,,,,,,,,,392.3685411999995,392.4201152000005,393.3678801999995,393.43440700000065,397.3678639999998,397.3678639999998,398.3678973999995,398.3678973999995,398.3678973999995,399.10178540000015,comma,1,0.7177722999986145,None,399.1019935000004,399.1341493,399.1341493,401.13439839999955,401.13439839999955,401.10568650000096,4.0,['rshift'],[0.3513963999994303],[None],401.1058544999996,401.13439839999955,403.1116751999998,,,,,,,,,,,,,,,,,,,,,,,,,,,,,,,,,,,,,,,,,,,,,,,,,,,,,,,,,,,,,,,,,,,,,,,,,,,,,,011,001,2024-06-11_14h46.18.963,ps,2023.2.3,30.059267858368383,2024-06-11 14h46.30.085257 -0400,
mini_blocks/2d_wm_mini_block_1.xlsx,"*Break*
Entering the 2D WORKING MEMORY block
Rotation is Counter/Clockwise
Press <4> to continue
               ",1,0,0,,,,,,,,,,,,,,0,1,1,1,,,,,,,,,,,,,,,,,,,,,,,,,,,,,,,,,,,,,,,,,,,,,,,,,,,,,,,,,,,,,,,,,,,,,,,,,,,,,,,,,,403.111738900001,403.1345020000008,403.1345020000008,411.10491379999985,3.0,"['rshift', 'slash']","[1.3508558000012272, 6.190808700001071]","[None, None]",411.10504969999965,411.1050799000004,None,411.13453710000067,411.13453710000067,,,,,,,,,,,,,,,,,,,,,,,,,,,,,,,,,,,,,,,,,,,,,,,,,,,,,,,,,,,,,,,,011,001,2024-06-11_14h46.18.963,ps,2023.2.3,30.059267858368383,2024-06-11 14h46.30.085257 -0400,
mini_blocks/2d_single_mini_block_1.xlsx,"*Break*
Entering the 2D SIMULTANEOUS block
Rotation is Counter/Clockwise
Press <4> to continue",0,1,0,2D,None,180,True,False,None,obj1,180,0,output_pairs/2D_180m/2D_180m_obj_12_180_to_0deg.png,None,1357,period,0,2,2,2,0,0,0,0,,,,,,,,,,,,,414.83350040000005,,,,,,,,,,,,,,,,,,,,,,,,,,,,,,411.1052070000005,411.13453710000067,411.13453710000067,414.70196550000037,rshift,3.5339086999993015,None,,,,,,,,,,,,,,,419.83566880000035,419.8679658000001,419.8679658000001,421.8675997999999,421.8675997999999,421.83781369999997,3.0,['slash'],[1.6900963999996748],[None],421.83807069999966,421.8675997999999,423.83473530000083,423.8723903000009,,,,,,,,,,,,,,414.7083468000001,414.83350040000005,415.70117310000023,415.70117310000023,415.834577900001,419.83536230000027,period,1,4.112294299999121,None,,,,,,,,,,,,,,,,,,,,,,,,,,,,,,,,,,,,,,,,,,,,,,,,,,,,,,011,001,2024-06-11_14h46.18.963,ps,2023.2.3,30.059267858368383,2024-06-11 14h46.30.085257 -0400,
mini_blocks/2d_single_mini_block_1.xlsx,"*Break*
Entering the 2D SIMULTANEOUS block
Rotation is Counter/Clockwise
Press <4> to continue",0,1,0,2D,None,120,True,False,None,obj1,260,20,output_pairs/2D_120m/2D_120m_obj_1_260_to_20deg.png,None,1396,period,0,2,2,2,0,1,1,1,,,,,,,,,,,,,423.8723903000009,,,,,,,,,,,,,,,,,,,,,,,,,,,,,,,,,,,,,,,,,,,,,,,,,,,432.80221639999945,432.8344158,432.8344158,434.83462320000035,434.83462320000035,434.80522250000104,3.0,['slash'],[1.8829268999998021],[None],434.80536849999953,434.83462320000035,436.80184949999966,436.8462287000002,,,,,,,,,,,,,,423.8349108000002,423.8723903000009,424.8346999000005,424.8346999000005,424.9054209999995,432.80200909999985,period,1,7.954735100000107,None,,,,,,,,,,,,,,,,,,,,,,,,,,,,,,,,,,,,,,,,,,,,,,,,,,,,,,011,001,2024-06-11_14h46.18.963,ps,2023.2.3,30.059267858368383,2024-06-11 14h46.30.085257 -0400,
mini_blocks/2d_single_mini_block_1.xlsx,"*Break*
Entering the 2D SIMULTANEOUS block
Rotation is Counter/Clockwise
Press <4> to continue",0,1,0,2D,None,0,False,False,None,obj1,160,None,output_pairs/2D_0/2D_0_obj_14_160deg.png,None,2015,comma,0,2,2,2,0,2,2,2,,,,,,,,,,,,,436.8462287000002,,,,,,,,,,,,,,,,,,,,,,,,,,,,,,,,,,,,,,,,,,,,,,,,,,,438.9357954999996,438.96797250000054,438.96797250000054,440.96769870000026,440.96769870000026,440.93827670000064,4.0,"['rshift', 'rshift']","[0.3337766000004194, 1.0219409000001178]","[None, None]",440.9384308000008,440.96769870000026,442.9353358999997,442.9811057000006,,,,,,,,,,,,,,436.8020319999996,436.8462287000002,437.81174199999987,437.81174199999987,437.8681405999996,438.93558719999965,comma,1,1.0903302999995503,None,,,,,,,,,,,,,,,,,,,,,,,,,,,,,,,,,,,,,,,,,,,,,,,,,,,,,,011,001,2024-06-11_14h46.18.963,ps,2023.2.3,30.059267858368383,2024-06-11 14h46.30.085257 -0400,
mini_blocks/2d_single_mini_block_1.xlsx,"*Break*
Entering the 2D SIMULTANEOUS block
Rotation is Counter/Clockwise
Press <4> to continue",0,1,0,2D,None,180,False,False,None,obj1,180,0,output_pairs/2D_180/2D_180_obj_11_180_to_0deg.png,None,1084,comma,0,2,2,2,0,3,3,3,,,,,,,,,,,,,442.9811057000006,,,,,,,,,,,,,,,,,,,,,,,,,,,,,,,,,,,,,,,,,,,,,,,,,,,447.0691310000002,447.1014298000009,447.1014298000009,449.10144670000045,449.10144670000045,449.0717955,3.0,['slash'],[0.7925835000005463],[None],449.07194789999994,449.10144670000045,451.06864920000044,451.1133952,,,,,,,,,,,,,,442.93552160000036,442.9811057000006,443.93491770000037,443.93491770000037,444.0118510000011,447.0689196000003,comma,1,3.103028700001232,None,,,,,,,,,,,,,,,,,,,,,,,,,,,,,,,,,,,,,,,,,,,,,,,,,,,,,,011,001,2024-06-11_14h46.18.963,ps,2023.2.3,30.059267858368383,2024-06-11 14h46.30.085257 -0400,
mini_blocks/2d_single_mini_block_1.xlsx,"*Break*
Entering the 2D SIMULTANEOUS block
Rotation is Counter/Clockwise
Press <4> to continue",0,1,0,2D,None,0,False,False,None,obj1,280,None,output_pairs/2D_0/2D_0_obj_1_280deg.png,None,2004,comma,0,2,2,2,0,4,4,4,,,,,,,,,,,,,451.1133952,,,,,,,,,,,,,,,,,,,,,,,,,,,,,,,,,,,,,,,,,,,,,,,,,,,453.00252490000094,453.0346833000003,453.0346833000003,455.0345395000004,455.0345395000004,455.0056784999997,4.0,['rshift'],[0.18704909999905794],[None],455.00583279999955,455.0345395000004,457.0059787000009,,,,,,,,,,,,,,,451.0688248999995,451.1133952,452.10137399999985,452.10137399999985,452.1346813,453.0023175999995,comma,1,0.8876223999996,None,,,,,,,,,,,,,,,,,,,,,,,,,,,,,,,,,,,,,,,,,,,,,,,,,,,,,,011,001,2024-06-11_14h46.18.963,ps,2023.2.3,30.059267858368383,2024-06-11 14h46.30.085257 -0400,
mini_blocks/2d_single_mini_block_1.xlsx,"*Break*
Entering the 2D SIMULTANEOUS block
Rotation is Counter/Clockwise
Press <4> to continue",0,1,0,2D,None,60,False,False,None,obj9,140,200,output_pairs/2D_60/2D_60_obj_9_140_to_200deg.png,None,957,comma,0,2,2,2,0,5,5,5,,,,,,,,,,,,,457.04385270000057,,,,,,,,,,,,,,,,,,,,,,,,,,,,,,,,,,,,,,,,,,,,,,,,,,,459.66879680000056,459.7011390000007,459.7011390000007,461.70149820000006,461.70149820000006,461.6718447000003,4.0,['rshift'],[0.6082471000008809],[None],461.67201469999964,461.70149820000006,463.6686901000012,463.7138577000005,,,,,,,,,,,,,,457.0061717999997,457.04385270000057,458.0012936000003,458.0012936000003,458.06813540000076,459.6685828000009,comma,1,1.6355050999991363,None,,,,,,,,,,,,,,,,,,,,,,,,,,,,,,,,,,,,,,,,,,,,,,,,,,,,,,011,001,2024-06-11_14h46.18.963,ps,2023.2.3,30.059267858368383,2024-06-11 14h46.30.085257 -0400,
mini_blocks/2d_single_mini_block_1.xlsx,"*Break*
Entering the 2D SIMULTANEOUS block
Rotation is Counter/Clockwise
Press <4> to continue",0,1,0,2D,None,120,True,False,None,obj1,180,300,output_pairs/2D_120m/2D_120m_obj_14_180_to_300deg.png,None,1400,period,0,2,2,2,0,6,6,6,,,,,,,,,,,,,463.7138577000005,,,,,,,,,,,,,,,,,,,,,,,,,,,,,,,,,,,,,,,,,,,,,,,,,,,467.00243240000054,467.0345182000001,467.0345182000001,469.0347879000001,469.0347879000001,469.0053422000001,3.0,['slash'],[0.8187464000002365],[None],469.00549239999964,469.0347879000001,471.00207299999965,471.0492025000003,,,,,,,,,,,,,,463.6688778000007,463.7138577000005,464.6786523999999,464.6786523999999,464.7453313999995,467.00222290000056,period,1,2.3194423000004463,None,,,,,,,,,,,,,,,,,,,,,,,,,,,,,,,,,,,,,,,,,,,,,,,,,,,,,,011,001,2024-06-11_14h46.18.963,ps,2023.2.3,30.059267858368383,2024-06-11 14h46.30.085257 -0400,
mini_blocks/2d_single_mini_block_1.xlsx,"*Break*
Entering the 2D SIMULTANEOUS block
Rotation is Counter/Clockwise
Press <4> to continue",0,1,0,2D,None,0,True,False,None,sm4,60,None,output_pairs/2D_0m/2D_0m_SM4_60deg.png,None,1150,period,0,2,2,2,0,7,7,7,,,,,,,,,,,,,471.0492025000003,,,,,,,,,,,,,,,,,,,,,,,,,,,,,,,,,,,,,,,,,,,,,,,,,,,473.9024102000003,473.9343669000009,473.9343669000009,475.9349409999995,475.9349409999995,475.9055363000007,4.0,"['slash', 'rshift']","[0.31144959999983257, 0.8389119999992545]","[None, None]",475.90568280000116,475.9349409999995,477.9019814000003,477.9475524999998,,,,,,,,,,,,,,471.00225090000094,471.0492025000003,472.03484630000094,472.03484630000094,472.0682539999998,473.90219419999994,period,1,1.8429266000002826,None,,,,,,,,,,,,,,,,,,,,,,,,,,,,,,,,,,,,,,,,,,,,,,,,,,,,,,011,001,2024-06-11_14h46.18.963,ps,2023.2.3,30.059267858368383,2024-06-11 14h46.30.085257 -0400,
mini_blocks/2d_single_mini_block_1.xlsx,"*Break*
Entering the 2D SIMULTANEOUS block
Rotation is Counter/Clockwise
Press <4> to continue",0,1,0,2D,None,180,False,False,None,sm2,140,320,output_pairs/2D_180/2D_180_SM2_140_to_320deg.png,None,1072,comma,0,2,2,2,0,8,8,8,,,,,,,,,,,,,477.9475524999998,,,,,,,,,,,,,,,,,,,,,,,,,,,,,,,,,,,,,,,,,,,,,,,,,,,481.0020783,481.0343938999995,481.0343938999995,483.0349487000003,483.0349487000003,483.0057147000007,3.0,['slash'],[0.5319705000001704],[None],483.0058600000011,483.0349487000003,485.00207539999974,485.0484187000002,,,,,,,,,,,,,,477.90215590000116,477.9475524999998,478.90152040000066,478.90152040000066,478.9681304000005,481.00185070000043,period,0,2.0716843999998673,None,,,,,,,,,,,,,,,,,,,,,,,,,,,,,,,,,,,,,,,,,,,,,,,,,,,,,,011,001,2024-06-11_14h46.18.963,ps,2023.2.3,30.059267858368383,2024-06-11 14h46.30.085257 -0400,
mini_blocks/2d_single_mini_block_1.xlsx,"*Break*
Entering the 2D SIMULTANEOUS block
Rotation is Counter/Clockwise
Press <4> to continue",0,1,0,2D,None,180,True,False,None,obj9,180,0,output_pairs/2D_180m/2D_180m_obj_9_180_to_0deg.png,None,1364,period,0,2,2,2,0,9,9,9,,,,,,,,,,,,,485.0484187000002,,,,,,,,,,,,,,,,,,,,,,,,,,,,,,,,,,,,,,,,,,,,,,,,,,,489.23580010000114,489.26787049999984,489.26787049999984,491.26834659999986,491.26834659999986,491.23881880000044,2.0,['period'],[1.4343659999994998],[None],491.2389992999997,491.26834659999986,493.2353299000006,493.28098390000014,,,,,,,,,,,,,,485.0022508000002,485.0484187000002,486.0015734000008,486.0015734000008,486.0681390999998,489.2355889999999,period,1,3.203714700001001,None,,,,,,,,,,,,,,,,,,,,,,,,,,,,,,,,,,,,,,,,,,,,,,,,,,,,,,011,001,2024-06-11_14h46.18.963,ps,2023.2.3,30.059267858368383,2024-06-11 14h46.30.085257 -0400,
mini_blocks/2d_single_mini_block_1.xlsx,"*Break*
Entering the 2D SIMULTANEOUS block
Rotation is Counter/Clockwise
Press <4> to continue",0,1,0,2D,None,120,False,False,None,obj8,220,340,output_pairs/2D_120/2D_120_obj_8_220_to_340deg.png,None,1118,comma,0,2,2,2,0,10,10,10,,,,,,,,,,,,,493.28098390000014,,,,,,,,,,,,,,,,,,,,,,,,,,,,,,,,,,,,,,,,,,,,,,,,,,,495.90231660000063,495.934623000001,495.934623000001,497.93501040000046,497.93501040000046,497.9055253000006,4.0,['rshift'],[0.5749484999996639],[None],497.9056724000002,497.93501040000046,499.9022012000005,499.9465215,,,,,,,,,,,,,,493.2354986999999,493.28098390000014,494.23487580000074,494.23487580000074,494.3016611000003,495.9021016000006,comma,1,1.6337511999990966,None,,,,,,,,,,,,,,,,,,,,,,,,,,,,,,,,,,,,,,,,,,,,,,,,,,,,,,011,001,2024-06-11_14h46.18.963,ps,2023.2.3,30.059267858368383,2024-06-11 14h46.30.085257 -0400,
mini_blocks/2d_single_mini_block_1.xlsx,"*Break*
Entering the 2D SIMULTANEOUS block
Rotation is Counter/Clockwise
Press <4> to continue",0,1,0,2D,None,120,False,False,None,obj3,60,180,output_pairs/2D_120/2D_120_obj_3_60_to_180deg.png,None,1104,comma,0,2,2,2,0,11,11,11,,,,,,,,,,,,,499.9465215,,,,,,,,,,,,,,,,,,,,,,,,,,,,,,,,,,,,,,,,,,,,,,,,,,,504.3358275999999,504.3680440999997,504.3680440999997,506.3683928999999,506.3683928999999,506.338793500001,4.0,['rshift'],[0.6053883000004134],[None],506.3389427000002,506.3683928999999,508.33556260000114,508.38165149999986,,,,,,,,,,,,,,499.9023775000005,499.9465215,500.90166580000005,500.90166580000005,500.9682613999994,504.33561539999937,comma,1,3.4158578000005946,None,,,,,,,,,,,,,,,,,,,,,,,,,,,,,,,,,,,,,,,,,,,,,,,,,,,,,,011,001,2024-06-11_14h46.18.963,ps,2023.2.3,30.059267858368383,2024-06-11 14h46.30.085257 -0400,
mini_blocks/2d_single_mini_block_1.xlsx,"*Break*
Entering the 2D SIMULTANEOUS block
Rotation is Counter/Clockwise
Press <4> to continue",0,1,0,2D,None,60,False,False,None,sm4,20,80,output_pairs/2D_60/2D_60_SM4_20_to_80deg.png,None,937,comma,0,2,2,2,0,12,12,12,,,,,,,,,,,,,508.38165149999986,,,,,,,,,,,,,,,,,,,,,,,,,,,,,,,,,,,,,,,,,,,,,,,,,,,510.6358951000002,510.66802149999967,510.66802149999967,512.6681440000011,512.6681440000011,512.6386123000011,4.0,['rshift'],[0.12166780000006838],[None],512.6387644999995,512.6681440000011,514.6456063000005,,,,,,,,,,,,,,,508.3357381000005,508.38165149999986,509.33501799999976,509.33501799999976,509.40173069999946,510.63567150000017,comma,1,1.278699599999527,None,,,,,,,,,,,,,,,,,,,,,,,,,,,,,,,,,,,,,,,,,,,,,,,,,,,,,,011,001,2024-06-11_14h46.18.963,ps,2023.2.3,30.059267858368383,2024-06-11 14h46.30.085257 -0400,
mini_blocks/2d_single_mini_block_1.xlsx,"*Break*
Entering the 2D SIMULTANEOUS block
Rotation is Counter/Clockwise
Press <4> to continue",0,1,0,2D,None,60,True,False,None,sm4,180,240,output_pairs/2D_60m/2D_60m_SM4_180_to_240deg.png,None,547,period,0,2,2,2,0,13,13,13,,,,,,,,,,,,,514.695260800001,,,,,,,,,,,,,,,,,,,,,,,,,,,,,,,,,,,,,,,,,,,,,,,,,,,518.3356839999997,518.3680600999996,518.3680600999996,520.3686185000006,520.3686185000006,520.3387784999995,3.0,['slash'],[0.9740227000002051],[None],520.3389274000001,520.3686185000006,522.3356660000009,522.3810123000003,,,,,,,,,,,,,,514.6457910000008,514.695260800001,515.6350394000001,515.6350394000001,515.7017357999994,518.3354696999995,comma,0,2.6678065000014612,None,,,,,,,,,,,,,,,,,,,,,,,,,,,,,,,,,,,,,,,,,,,,,,,,,,,,,,011,001,2024-06-11_14h46.18.963,ps,2023.2.3,30.059267858368383,2024-06-11 14h46.30.085257 -0400,
mini_blocks/2d_single_mini_block_1.xlsx,"*Break*
Entering the 2D SIMULTANEOUS block
Rotation is Counter/Clockwise
Press <4> to continue",0,1,0,2D,None,60,True,False,None,obj6,100,160,output_pairs/2D_60m/2D_60m_obj_6_100_to_160deg.png,None,544,period,0,2,2,2,0,14,14,14,,,,,,,,,,,,,522.3810123000003,,,,,,,,,,,,,,,,,,,,,,,,,,,,,,,,,,,,,,,,,,,,,,,,,,,524.8026508000003,524.8346182000005,524.8346182000005,526.8348927000006,526.8348927000006,526.8054417000003,4.0,['rshift'],[0.8106950999990659],[None],526.8056046000002,526.8348927000006,528.8123536000003,,,,,,,,,,,,,,,522.3358444000005,522.3810123000003,523.3350279999995,523.3350279999995,523.4016761000003,524.8024287000007,comma,0,1.4618866999990132,None,,,,,,,,,,,,,,,,,,,,,,,,,,,,,,,,,,,,,,,,,,,,,,,,,,,,,,011,001,2024-06-11_14h46.18.963,ps,2023.2.3,30.059267858368383,2024-06-11 14h46.30.085257 -0400,
mini_blocks/2d_single_mini_block_1.xlsx,"*Break*
Entering the 2D SIMULTANEOUS block
Rotation is Counter/Clockwise
Press <4> to continue",0,1,0,2D,None,0,True,False,None,obj1,260,None,output_pairs/2D_0m/2D_0m_obj_1_260deg.png,None,1121,period,0,2,2,2,0,15,15,15,,,,,,,,,,,,,528.8623552000008,,,,,,,,,,,,,,,,,,,,,,,,,,,,,,,,,,,,,,,,,,,,,,,,,,,530.9029769000008,530.9351425999994,530.9351425999994,532.9347367999999,532.9347367999999,532.9054032000004,4.0,['rshift'],[0.3338679999997112],[None],532.9055582000001,532.9347367999999,534.9062747000007,,,,,,,,,,,,,,,528.8125469999995,528.8623552000008,529.8016745999994,529.8016745999994,529.8683669000002,530.9027688000006,period,1,1.0919462999991083,None,,,,,,,,,,,,,,,,,,,,,,,,,,,,,,,,,,,,,,,,,,,,,,,,,,,,,,011,001,2024-06-11_14h46.18.963,ps,2023.2.3,30.059267858368383,2024-06-11 14h46.30.085257 -0400,
mini_blocks/2d_single_mini_block_1.xlsx,"*Break*
Entering the 2D SIMULTANEOUS block
Rotation is Counter/Clockwise
Press <4> to continue",0,1,0,,,,,,,,,,,,,,0,2,2,2,,,,,,,,,,,,,,,,,,,,,,,,,,,,,,,,,,,,,,,,,,,,,,,,,,,,,,,,,,,,,,,,,,,,,,,,,,,,,,,,,,534.912594200001,534.939581300001,534.939581300001,542.9365383000004,3.0,['slash'],[1.6419485000005807],[None],542.9366788000007,542.9367027000008,None,,,,,,,,,,,,,,,,,,,,,,,,,,,,,,,,,,,,,,,,,,,,,,,,,,,,,,,,,,,,,,,,,,011,001,2024-06-11_14h46.18.963,ps,2023.2.3,30.059267858368383,2024-06-11 14h46.30.085257 -0400,
mini_blocks/3dp_wm_mini_block_1.xlsx,"*Break*
Entering the 3D WORKING MEMORY block
Rotation is Counter/Clockwise
Press <4> to continue",1,0,1,3D,p,180,False,True,15,sm1,200,20,output_pairs/3Dp_180_WM/3Dp_60_WM_15_1_sm_1_200deg.png,output_pairs/3Dp_180_WM/3Dp_60_WM_15_2_sm_1_20deg.png,481,comma,0,3,3,3,,,,,0,0,0,0,,,,,,,,,544.0711119999996,,,,,,,,,,,,,,,,,,,,,,,,,,,,,,542.9368218,542.9680248000004,542.9680248000004,544.0025913999998,rshift,1.0217462000000523,None,544.0160475000012,544.0711119999996,545.0019513999996,545.101972800001,549.0019179999999,549.0019179999999,550.0062307999997,550.0062307999997,550.0062307999997,553.5692920000001,period,0,3.543316799999957,None,553.5695864000008,553.6019221999995,553.6019221999995,,,555.5805968000004,2.0,['period'],[0.8914100999991206],[None],555.5808398000008,555.6123222999995,557.6018242000009,,,,,,,,,,,,,,,,,,,,,,,,,,,,,,,,,,,,,,,,,,,,,,,,,,,,,,,,,,,,,,,,,,,,,,,,,,,,,,011,001,2024-06-11_14h46.18.963,ps,2023.2.3,30.059267858368383,2024-06-11 14h46.30.085257 -0400,
mini_blocks/3dp_wm_mini_block_1.xlsx,"*Break*
Entering the 3D WORKING MEMORY block
Rotation is Counter/Clockwise
Press <4> to continue",1,0,1,3D,p,0,False,True,5,sm2,280,280,output_pairs/3Dp_0_WM/3Dp_0_WM_05_1_sm_2_280deg.png,output_pairs/3Dp_0_WM/3Dp_0_WM_05_2_sm_2_280deg.png,113,comma,0,3,3,3,,,,,0,1,1,1,,,,,,,,,557.6491654000001,,,,,,,,,,,,,,,,,,,,,,,,,,,,,,,,,,,,,557.6021065000004,557.6491654000001,558.5729480999998,558.6687753000006,562.6019961000002,562.5686172000005,563.5686311000009,563.5686311000009,563.5686311000009,564.8025839000002,comma,1,1.2053617000001395,None,564.8028107999999,564.8350358000007,564.8350358000007,566.8349708000005,566.8349708000005,566.8056085999997,4.0,['rshift'],[0.2984878999995999],[None],566.8057630000003,566.8349708000005,568.8123298999999,,,,,,,,,,,,,,,,,,,,,,,,,,,,,,,,,,,,,,,,,,,,,,,,,,,,,,,,,,,,,,,,,,,,,,,,,,,,,,011,001,2024-06-11_14h46.18.963,ps,2023.2.3,30.059267858368383,2024-06-11 14h46.30.085257 -0400,
mini_blocks/3dp_wm_mini_block_1.xlsx,"*Break*
Entering the 3D WORKING MEMORY block
Rotation is Counter/Clockwise
Press <4> to continue",1,0,1,3D,p,120,True,True,10,obj1,200,80,output_pairs/3Dp_120_M_WM/3Dp_120_M_WM_10_1_obj_12_200deg.png,output_pairs/3Dp_120_M_WM/3Dp_120_M_WM_10_2_obj_12_80deg.png,646,period,0,3,3,3,,,,,0,2,2,2,,,,,,,,,568.8647385000004,,,,,,,,,,,,,,,,,,,,,,,,,,,,,,,,,,,,,568.8125089000005,568.8647385000004,569.8019691000009,569.8686729000001,573.8015467999994,573.8352004000008,574.8397354000008,574.8021153999998,574.8021153999998,577.0026966999994,period,1,2.1795406000001094,None,577.0029047000007,577.0350140999999,577.0350140999999,579.0353929000012,579.0353929000012,579.0058960999995,2.0,['period'],[0.6021531999995204],[None],579.0060630000007,579.0353929000012,581.0025686999998,581.0559642999997,,,,,,,,,,,,,,,,,,,,,,,,,,,,,,,,,,,,,,,,,,,,,,,,,,,,,,,,,,,,,,,,,,,,,,,,,,,,,011,001,2024-06-11_14h46.18.963,ps,2023.2.3,30.059267858368383,2024-06-11 14h46.30.085257 -0400,
mini_blocks/3dp_wm_mini_block_1.xlsx,"*Break*
Entering the 3D WORKING MEMORY block
Rotation is Counter/Clockwise
Press <4> to continue",1,0,1,3D,p,60,True,True,19,sm2,140,80,output_pairs/3Dp_60_M_WM/3Dp_60_M_WM_19_1_sm_2_140deg.png,output_pairs/3Dp_60_M_WM/3Dp_60_M_WM_19_2_sm_2_80deg.png,288,period,0,3,3,3,,,,,0,3,3,3,,,,,,,,,581.0559642999997,,,,,,,,,,,,,,,,,,,,,,,,,,,,,,,,,,,,,581.002770000001,581.0559642999997,582.002089900001,582.068657400001,586.001820200001,586.0351738999998,587.0354447999998,587.0022303000005,587.0022303000005,589.9027122000007,period,1,2.875104899998405,None,589.9029160000009,589.9349560999999,589.9349560999999,591.9354552000004,591.9354552000004,591.9061958000002,2.0,['period'],[0.6394961999994848],[None],591.9063523999994,591.9354552000004,593.9025860000002,593.9576699999998,,,,,,,,,,,,,,,,,,,,,,,,,,,,,,,,,,,,,,,,,,,,,,,,,,,,,,,,,,,,,,,,,,,,,,,,,,,,,011,001,2024-06-11_14h46.18.963,ps,2023.2.3,30.059267858368383,2024-06-11 14h46.30.085257 -0400,
mini_blocks/3dp_wm_mini_block_1.xlsx,"*Break*
Entering the 3D WORKING MEMORY block
Rotation is Counter/Clockwise
Press <4> to continue",1,0,1,3D,p,0,True,True,14,sm4,220,220,output_pairs/3Dp_0_M_WM/3Dp_0_M_WM_14_1_sm_4_220deg.png,output_pairs/3Dp_0_M_WM/3Dp_0_M_WM_14_2_sm_4_220deg.png,521,period,0,3,3,3,,,,,0,4,4,4,,,,,,,,,593.9576699999998,,,,,,,,,,,,,,,,,,,,,,,,,,,,,,,,,,,,,593.9027638999996,593.9576699999998,594.9020113999995,594.9687305999996,598.9021923,598.9021923,599.9021664000011,599.9021664000011,599.9021664000011,602.9025308,period,1,2.9914107999993576,None,602.902717500001,602.9350517000003,602.9350517000003,604.9354197000011,604.9354197000011,604.9059104999997,3.0,['slash'],[0.7987247000000934],[None],604.9060889000011,604.9354197000011,606.9025794999998,606.9499754000008,,,,,,,,,,,,,,,,,,,,,,,,,,,,,,,,,,,,,,,,,,,,,,,,,,,,,,,,,,,,,,,,,,,,,,,,,,,,,011,001,2024-06-11_14h46.18.963,ps,2023.2.3,30.059267858368383,2024-06-11 14h46.30.085257 -0400,
mini_blocks/3dp_wm_mini_block_1.xlsx,"*Break*
Entering the 3D WORKING MEMORY block
Rotation is Counter/Clockwise
Press <4> to continue",1,0,1,3D,p,0,True,True,28,obj1,20,20,output_pairs/3Dp_0_M_WM/3Dp_0_M_WM_28_1_obj_14_20deg.png,output_pairs/3Dp_0_M_WM/3Dp_0_M_WM_28_2_obj_14_20deg.png,543,period,0,3,3,3,,,,,0,5,5,5,,,,,,,,,606.9499754000008,,,,,,,,,,,,,,,,,,,,,,,,,,,,,,,,,,,,,606.9027619000008,606.9499754000008,607.9125975999996,607.9792457000003,611.9354519999997,611.9021895999995,612.9126013999994,612.9126013999994,612.9126013999994,614.6363873999999,period,1,1.6931864999987738,None,614.6366034000002,614.6688088999999,614.6688088999999,616.6683905999998,616.6683905999998,616.6390317999994,3.0,"['period', 'slash']","[0.17683209999995597, 0.7450026999995316]","[None, None]",616.6391873000011,616.6683905999998,618.6362504000008,618.683790000001,,,,,,,,,,,,,,,,,,,,,,,,,,,,,,,,,,,,,,,,,,,,,,,,,,,,,,,,,,,,,,,,,,,,,,,,,,,,,011,001,2024-06-11_14h46.18.963,ps,2023.2.3,30.059267858368383,2024-06-11 14h46.30.085257 -0400,
mini_blocks/3dp_wm_mini_block_1.xlsx,"*Break*
Entering the 3D WORKING MEMORY block
Rotation is Counter/Clockwise
Press <4> to continue",1,0,1,3D,p,120,True,True,16,obj1,320,80,output_pairs/3Dp_120_M_WM/3Dp_120_M_WM_16_1_obj_11_320deg.png,output_pairs/3Dp_120_M_WM/3Dp_120_M_WM_16_2_obj_11_80deg.png,668,period,0,3,3,3,,,,,0,6,6,6,,,,,,,,,618.683790000001,,,,,,,,,,,,,,,,,,,,,,,,,,,,,,,,,,,,,618.6364243999997,618.683790000001,619.6353775999996,619.7066658000003,623.6352435000008,623.6686721000005,624.6690006999997,624.6355793000002,624.6355793000002,626.0799771000002,period,1,1.4342747000009695,None,626.0801744,626.1020343,626.1020343,628.1018917000001,628.1018917000001,628.0727328000012,3.0,None,,,628.0728371000005,628.1018917000001,630.0736568000011,630.1201710999994,,,,,,,,,,,,,,,,,,,,,,,,,,,,,,,,,,,,,,,,,,,,,,,,,,,,,,,,,,,,,,,,,,,,,,,,,,,,,011,001,2024-06-11_14h46.18.963,ps,2023.2.3,30.059267858368383,2024-06-11 14h46.30.085257 -0400,
mini_blocks/3dp_wm_mini_block_1.xlsx,"*Break*
Entering the 3D WORKING MEMORY block
Rotation is Counter/Clockwise
Press <4> to continue",1,0,1,3D,p,60,True,True,1,obj1,0,60,output_pairs/3Dp_60_M_WM/3Dp_60_M_WM_01_1_obj_11_0deg.png,output_pairs/3Dp_60_M_WM/3Dp_60_M_WM_01_2_obj_11_60deg.png,309,period,0,3,3,3,,,,,0,7,7,7,,,,,,,,,630.1201710999994,,,,,,,,,,,,,,,,,,,,,,,,,,,,,,,,,,,,,630.0738266000008,630.1201710999994,631.0790470000011,631.1355698000007,635.1019553999995,635.1019553999995,636.102044700001,636.102044700001,636.102044700001,639.0362619999996,period,1,2.9120428999995056,None,639.0364700999999,639.0684999999994,639.0684999999994,641.068952900001,641.068952900001,641.0390226,2.0,['period'],[0.9604297999994742],[None],641.0391694000009,641.068952900001,643.0361976000004,643.0913417000011,,,,,,,,,,,,,,,,,,,,,,,,,,,,,,,,,,,,,,,,,,,,,,,,,,,,,,,,,,,,,,,,,,,,,,,,,,,,,011,001,2024-06-11_14h46.18.963,ps,2023.2.3,30.059267858368383,2024-06-11 14h46.30.085257 -0400,
mini_blocks/3dp_wm_mini_block_1.xlsx,"*Break*
Entering the 3D WORKING MEMORY block
Rotation is Counter/Clockwise
Press <4> to continue",1,0,1,3D,p,120,False,True,30,obj4,160,280,output_pairs/3Dp_120_WM/3Dp_120_WM_30_1_obj_4_160deg.png,output_pairs/3Dp_120_WM/3Dp_120_WM_30_2_obj_4_280deg.png,343,comma,0,3,3,3,,,,,0,8,8,8,,,,,,,,,643.0913417000011,,,,,,,,,,,,,,,,,,,,,,,,,,,,,,,,,,,,,643.0363746000003,643.0913417000011,644.0356778000005,644.1022527000005,648.0357187999998,648.0357187999998,649.0360277,649.0360277,649.0360277,651.9364956999998,comma,1,2.8977751999991597,None,651.9367278999998,651.9691440999995,651.9691440999995,653.9794598000008,653.9794598000008,653.9394606000005,2.0,['period'],[0.7329109000002063],[None],653.9396053,653.9794598000008,655.9460123999997,,,,,,,,,,,,,,,,,,,,,,,,,,,,,,,,,,,,,,,,,,,,,,,,,,,,,,,,,,,,,,,,,,,,,,,,,,,,,,011,001,2024-06-11_14h46.18.963,ps,2023.2.3,30.059267858368383,2024-06-11 14h46.30.085257 -0400,
mini_blocks/3dp_wm_mini_block_1.xlsx,"*Break*
Entering the 3D WORKING MEMORY block
Rotation is Counter/Clockwise
Press <4> to continue",1,0,1,3D,p,120,False,True,3,obj1,40,160,output_pairs/3Dp_120_WM/3Dp_120_WM_03_1_obj_11_40deg.png,output_pairs/3Dp_120_WM/3Dp_120_WM_03_2_obj_11_160deg.png,349,comma,0,3,3,3,,,,,0,9,9,9,,,,,,,,,656.0107501000002,,,,,,,,,,,,,,,,,,,,,,,,,,,,,,,,,,,,,655.9462473000003,656.0107501000002,656.969068800001,657.0357117000003,660.9689400999996,660.9689400999996,661.9691781000001,661.9357822000002,661.9357822000002,666.5699456000002,comma,1,4.622122799999488,None,666.5701478999999,666.6024975,666.6024975,668.6021197000009,668.6021197000009,668.5727282000007,2.0,['period'],[1.5555185000011988],[None],668.5728933000009,668.6021197000009,670.5695751000003,670.6274121000006,,,,,,,,,,,,,,,,,,,,,,,,,,,,,,,,,,,,,,,,,,,,,,,,,,,,,,,,,,,,,,,,,,,,,,,,,,,,,011,001,2024-06-11_14h46.18.963,ps,2023.2.3,30.059267858368383,2024-06-11 14h46.30.085257 -0400,
mini_blocks/3dp_wm_mini_block_1.xlsx,"*Break*
Entering the 3D WORKING MEMORY block
Rotation is Counter/Clockwise
Press <4> to continue",1,0,1,3D,p,60,False,True,30,obj5,80,140,output_pairs/3Dp_60_WM/3Dp_60_WM_30_1_obj_5_80deg.png,output_pairs/3Dp_60_WM/3Dp_60_WM_30_2_obj_5_140deg.png,395,comma,0,3,3,3,,,,,0,10,10,10,,,,,,,,,670.6274121000006,,,,,,,,,,,,,,,,,,,,,,,,,,,,,,,,,,,,,670.5697928000009,670.6274121000006,671.573426500001,671.6402261000003,675.6022735999995,675.6022735999995,676.6026241,676.5689178000011,676.5689178000011,679.5364876000003,period,0,2.9484662000013486,None,679.5366929000011,679.5688779000011,679.5688779000011,681.5691545000009,681.5691545000009,681.5394799000005,2.0,['period'],[0.9729989999996178],[None],681.5397658000002,681.5691545000009,683.5363333999994,683.5962455000008,,,,,,,,,,,,,,,,,,,,,,,,,,,,,,,,,,,,,,,,,,,,,,,,,,,,,,,,,,,,,,,,,,,,,,,,,,,,,011,001,2024-06-11_14h46.18.963,ps,2023.2.3,30.059267858368383,2024-06-11 14h46.30.085257 -0400,
mini_blocks/3dp_wm_mini_block_1.xlsx,"*Break*
Entering the 3D WORKING MEMORY block
Rotation is Counter/Clockwise
Press <4> to continue",1,0,1,3D,p,0,False,True,16,obj1,40,40,output_pairs/3Dp_0_WM/3Dp_0_WM_16_1_obj_1_40deg.png,output_pairs/3Dp_0_WM/3Dp_0_WM_16_2_obj_1_40deg.png,127,comma,0,3,3,3,,,,,0,11,11,11,,,,,,,,,683.5962455000008,,,,,,,,,,,,,,,,,,,,,,,,,,,,,,,,,,,,,683.5365129000002,683.5962455000008,684.5359597000006,684.6026605000006,688.535850100001,688.535850100001,689.5462459999999,689.5462459999999,689.5462459999999,690.470105800001,comma,1,0.9081884999995964,None,690.4703246000008,690.5025607000007,690.5025607000007,692.5021390000002,692.5021390000002,692.4728646000003,4.0,['rshift'],[0.2797342999983812],[None],692.4730663000009,692.5021390000002,694.4737365000001,,,,,,,,,,,,,,,,,,,,,,,,,,,,,,,,,,,,,,,,,,,,,,,,,,,,,,,,,,,,,,,,,,,,,,,,,,,,,,011,001,2024-06-11_14h46.18.963,ps,2023.2.3,30.059267858368383,2024-06-11 14h46.30.085257 -0400,
mini_blocks/3dp_wm_mini_block_1.xlsx,"*Break*
Entering the 3D WORKING MEMORY block
Rotation is Counter/Clockwise
Press <4> to continue",1,0,1,3D,p,180,True,True,26,obj4,260,80,output_pairs/3Dp_180_M_WM/3Dp_180_M_WM_26_1_obj_4_260deg.png,output_pairs/3Dp_180_M_WM/3Dp_180_M_WM_26_2_obj_4_80deg.png,42,period,0,3,3,3,,,,,0,12,12,12,,,,,,,,,694.5307357000002,,,,,,,,,,,,,,,,,,,,,,,,,,,,,,,,,,,,,694.4739233,694.5307357000002,695.4693578999995,695.5461544000009,699.4693523999995,699.4693523999995,700.4796351000005,700.4796351000005,700.4796351000005,705.0033251999994,comma,0,4.517316400000709,None,705.0035322000003,705.0360713999999,705.0360713999999,707.035483900001,707.035483900001,707.0060525000008,2.0,['period'],[0.8097090999999637],[None],707.006232400001,707.035483900001,709.0032116000002,709.0509777999996,,,,,,,,,,,,,,,,,,,,,,,,,,,,,,,,,,,,,,,,,,,,,,,,,,,,,,,,,,,,,,,,,,,,,,,,,,,,,011,001,2024-06-11_14h46.18.963,ps,2023.2.3,30.059267858368383,2024-06-11 14h46.30.085257 -0400,
mini_blocks/3dp_wm_mini_block_1.xlsx,"*Break*
Entering the 3D WORKING MEMORY block
Rotation is Counter/Clockwise
Press <4> to continue",1,0,1,3D,p,180,True,True,4,obj1,320,140,output_pairs/3Dp_180_M_WM/3Dp_180_M_WM_04_1_obj_13_320deg.png,output_pairs/3Dp_180_M_WM/3Dp_180_M_WM_04_2_obj_13_140deg.png,40,period,0,3,3,3,,,,,0,13,13,13,,,,,,,,,709.0509777999996,,,,,,,,,,,,,,,,,,,,,,,,,,,,,,,,,,,,,709.0033901000006,709.0509777999996,710.0129529999995,710.0798133000008,714.0360710000004,714.0026596000007,715.0027687000002,715.0027687000002,715.0027687000002,717.5032798000011,period,1,2.47517020000123,None,717.5034888000009,717.5358687999997,717.5358687999997,719.5360378999994,719.5360378999994,719.506371200001,2.0,['period'],[0.9017206999997143],[None],719.5065665000002,719.5360378999994,721.5032358999997,721.5513881000006,,,,,,,,,,,,,,,,,,,,,,,,,,,,,,,,,,,,,,,,,,,,,,,,,,,,,,,,,,,,,,,,,,,,,,,,,,,,,011,001,2024-06-11_14h46.18.963,ps,2023.2.3,30.059267858368383,2024-06-11 14h46.30.085257 -0400,
mini_blocks/3dp_wm_mini_block_1.xlsx,"*Break*
Entering the 3D WORKING MEMORY block
Rotation is Counter/Clockwise
Press <4> to continue",1,0,1,3D,p,60,False,True,26,sm4,120,60,output_pairs/3Dp_60_WM/3Dp_60_WM_26_1_sm_4_120deg.png,output_pairs/3Dp_60_WM/3Dp_60_WM_26_2_sm_4_60deg.png,408,comma,0,3,3,3,,,,,0,14,14,14,,,,,,,,,721.5513881000006,,,,,,,,,,,,,,,,,,,,,,,,,,,,,,,,,,,,,721.5034119000011,721.5513881000006,722.5026663999997,722.569397700001,726.5028147000012,726.5028147000012,727.502908800001,727.502908800001,727.502908800001,729.1701202000004,comma,1,1.66274710000107,None,729.1703278000005,729.2023071000003,729.2023071000003,731.2028100000007,731.2028100000007,731.1734405999996,2.0,['period'],[0.33929279999938444],[None],731.173601800001,731.2028100000007,733.1698828999997,733.2330032000009,,,,,,,,,,,,,,,,,,,,,,,,,,,,,,,,,,,,,,,,,,,,,,,,,,,,,,,,,,,,,,,,,,,,,,,,,,,,,011,001,2024-06-11_14h46.18.963,ps,2023.2.3,30.059267858368383,2024-06-11 14h46.30.085257 -0400,
mini_blocks/3dp_wm_mini_block_1.xlsx,"*Break*
Entering the 3D WORKING MEMORY block
Rotation is Counter/Clockwise
Press <4> to continue",1,0,1,3D,p,180,False,True,22,obj1,220,40,output_pairs/3Dp_180_WM/3Dp_60_WM_22_1_obj_11_220deg.png,output_pairs/3Dp_180_WM/3Dp_60_WM_22_2_obj_11_40deg.png,497,comma,0,3,3,3,,,,,0,15,15,15,,,,,,,,,733.2330032000009,,,,,,,,,,,,,,,,,,,,,,,,,,,,,,,,,,,,,733.1700560000008,733.2330032000009,734.1693914000007,734.2361297999996,738.1695170000003,738.1695170000003,739.1798118000006,739.1798118000006,739.1798118000006,742.2371536999999,comma,1,3.0496842000011384,None,742.2373537000003,742.2694859000003,742.2694859000003,744.2695856999999,744.2695856999999,744.2400338000007,2.0,['period'],[0.3445455999990372],[None],744.2401773000001,744.2695856999999,746.2365432999995,746.2694197000001,,,,,,,,,,,,,,,,,,,,,,,,,,,,,,,,,,,,,,,,,,,,,,,,,,,,,,,,,,,,,,,,,,,,,,,,,,,,,011,001,2024-06-11_14h46.18.963,ps,2023.2.3,30.059267858368383,2024-06-11 14h46.30.085257 -0400,
mini_blocks/3dp_wm_mini_block_1.xlsx,"*Break*
Entering the 3D WORKING MEMORY block
Rotation is Counter/Clockwise
Press <4> to continue",1,0,1,,,,,,,,,,,,,,0,3,3,3,,,,,,,,,,,,,,,,,,,,,,,,,,,,,,,,,,,,,,,,,,,,,,,,,,,,,,,,,,,,,,,,,,,,,,,,,,,,,,,,,,746.2366043000002,746.2694197000001,746.2694197000001,754.2397787000009,3.0,['slash'],[1.8246486999996705],[None],754.2399194000009,755.6701152999995,rshift,754.2691892000003,754.2691892000003,,,,,,,,,,,754.2691892000003,754.2691892000003,1.385293699999238,None,,,,,,,,,,,,,,,,,,,,,,,,,,,,,,,,,,,,,,,,,,,,,,,,,,011,001,2024-06-11_14h46.18.963,ps,2023.2.3,30.059267858368383,2024-06-11 14h46.30.085257 -0400,
mini_blocks/2d_single_mini_block_0.xlsx,"*Break*
Entering the 2D SIMULTANEOUS block
Rotation is Counter/Clockwise
Press <4> to continue",0,1,0,2D,None,120,True,False,None,obj3,220,340,output_pairs/2D_120m/2D_120m_obj_3_220_to_340deg.png,None,1376,period,0,4,4,4,0,0,0,0,,,,,,,,,,,,,756.8697627000001,,,,,,,,,,,,,,,,,,,,,,,,,,,,,,755.6704342000012,755.7026767999996,755.7026767999996,756.8037796999997,rshift,1.0793155000010302,None,,,,,,,,,,,,,,,760.6374080000005,760.6696403000005,760.6696403000005,762.669109800001,762.669109800001,762.639632800001,None,['slash'],[1.200996199999281],[None],762.6398824999997,762.669109800001,764.6369264999994,764.6818493999999,,,,,,,,,,,,,,756.8105491000006,756.8697627000001,757.8030661000012,757.8030661000012,757.8697264000002,760.6369935000002,period,1,2.8101053000009415,None,,,,,,,,,,,,,,,,,,,,,,,,,,,,,,,,,,,,,,,,,,,,,,,,,,,,,,011,001,2024-06-11_14h46.18.963,ps,2023.2.3,30.059267858368383,2024-06-11 14h46.30.085257 -0400,
mini_blocks/2d_single_mini_block_0.xlsx,"*Break*
Entering the 2D SIMULTANEOUS block
Rotation is Counter/Clockwise
Press <4> to continue",0,1,0,2D,None,60,False,False,None,sm2,20,80,output_pairs/2D_60/2D_60_SM2_20_to_80deg.png,None,929,comma,0,4,4,4,0,1,1,1,,,,,,,,,,,,,764.6818493999999,,,,,,,,,,,,,,,,,,,,,,,,,,,,,,,,,,,,,,,,,,,,,,,,,,,768.2371046999997,768.2693748000002,768.2693748000002,770.2695548000011,770.2695548000011,770.2401666999995,4.0,['rshift'],[0.23228239999843936],[None],770.2403121000007,770.2695548000011,772.2367957000006,772.2830984000011,,,,,,,,,,,,,,764.6371154000008,764.6818493999999,765.6466326999998,765.6466326999998,765.713306900001,768.2368958999996,comma,1,2.559187799999563,None,,,,,,,,,,,,,,,,,,,,,,,,,,,,,,,,,,,,,,,,,,,,,,,,,,,,,,011,001,2024-06-11_14h46.18.963,ps,2023.2.3,30.059267858368383,2024-06-11 14h46.30.085257 -0400,
mini_blocks/2d_single_mini_block_0.xlsx,"*Break*
Entering the 2D SIMULTANEOUS block
Rotation is Counter/Clockwise
Press <4> to continue",0,1,0,2D,None,60,True,False,None,obj1,180,240,output_pairs/2D_60m/2D_60m_obj_15_180_to_240deg.png,None,570,period,0,4,4,4,0,2,2,2,,,,,,,,,,,,,772.2830984000011,,,,,,,,,,,,,,,,,,,,,,,,,,,,,,,,,,,,,,,,,,,,,,,,,,,775.1704361000011,775.2027780000008,775.2027780000008,777.2029782999998,777.2029782999998,777.173381300001,3.0,['slash'],[0.9080264999993233],[None],777.1735325999998,777.2029782999998,779.1799381000001,,,,,,,,,,,,,,,772.236975400001,772.2830984000011,773.2363155000003,773.2363155000003,773.302891700001,775.1702225999998,period,1,1.9219702999998844,None,,,,,,,,,,,,,,,,,,,,,,,,,,,,,,,,,,,,,,,,,,,,,,,,,,,,,,011,001,2024-06-11_14h46.18.963,ps,2023.2.3,30.059267858368383,2024-06-11 14h46.30.085257 -0400,
mini_blocks/2d_single_mini_block_0.xlsx,"*Break*
Entering the 2D SIMULTANEOUS block
Rotation is Counter/Clockwise
Press <4> to continue",0,1,0,2D,None,60,True,False,None,obj2,140,200,output_pairs/2D_60m/2D_60m_obj_2_140_to_200deg.png,None,558,period,0,4,4,4,0,3,3,3,,,,,,,,,,,,,779.2299094000009,,,,,,,,,,,,,,,,,,,,,,,,,,,,,,,,,,,,,,,,,,,,,,,,,,,782.4704629999997,782.5025375999994,782.5025375999994,784.5030934000006,784.5030934000006,784.4733111000005,3.0,['slash'],[0.9905773999998928],[None],784.4734583000009,784.5030934000006,786.4741463999999,,,,,,,,,,,,,,,779.1801157999998,779.2299094000009,780.1694980000011,780.1694980000011,780.2363127999997,782.4702493000004,period,1,2.284562700000606,None,,,,,,,,,,,,,,,,,,,,,,,,,,,,,,,,,,,,,,,,,,,,,,,,,,,,,,011,001,2024-06-11_14h46.18.963,ps,2023.2.3,30.059267858368383,2024-06-11 14h46.30.085257 -0400,
mini_blocks/2d_single_mini_block_0.xlsx,"*Break*
Entering the 2D SIMULTANEOUS block
Rotation is Counter/Clockwise
Press <4> to continue",0,1,0,2D,None,120,False,False,None,obj8,220,340,output_pairs/2D_120/2D_120_obj_8_220_to_340deg.png,None,1118,comma,0,4,4,4,0,4,4,4,,,,,,,,,,,,,786.5109052999996,,,,,,,,,,,,,,,,,,,,,,,,,,,,,,,,,,,,,,,,,,,,,,,,,,,789.1707803000008,789.2030543000001,789.2030543000001,791.2025826000008,791.2025826000008,791.1733734999998,4.0,['rshift'],[0.267533000000185],[None],791.1735623000004,791.2025826000008,793.1703447,793.2172179999998,,,,,,,,,,,,,,786.4743340000005,786.5109052999996,787.4693296999994,787.4693296999994,787.5363930000003,789.170568900001,comma,1,1.6969439999993483,None,,,,,,,,,,,,,,,,,,,,,,,,,,,,,,,,,,,,,,,,,,,,,,,,,,,,,,011,001,2024-06-11_14h46.18.963,ps,2023.2.3,30.059267858368383,2024-06-11 14h46.30.085257 -0400,
mini_blocks/2d_single_mini_block_0.xlsx,"*Break*
Entering the 2D SIMULTANEOUS block
Rotation is Counter/Clockwise
Press <4> to continue",0,1,0,2D,None,120,True,False,None,obj1,200,320,output_pairs/2D_120m/2D_120m_obj_13_200_to_320deg.png,None,1383,period,0,4,4,4,0,5,5,5,,,,,,,,,,,,,793.2172179999998,,,,,,,,,,,,,,,,,,,,,,,,,,,,,,,,,,,,,,,,,,,,,,,,,,,797.0708307000004,797.102718600001,797.102718600001,799.1031003000007,799.1031003000007,799.0735344000004,3.0,['slash'],[0.7423353999984101],[None],799.0736904999994,799.1031003000007,801.0704984000004,801.1121327000001,,,,,,,,,,,,,,793.1705299999994,793.2172179999998,794.2029875000007,794.2029875000007,794.2365373000011,797.0706238000002,period,1,2.8665092999999615,None,,,,,,,,,,,,,,,,,,,,,,,,,,,,,,,,,,,,,,,,,,,,,,,,,,,,,,011,001,2024-06-11_14h46.18.963,ps,2023.2.3,30.059267858368383,2024-06-11 14h46.30.085257 -0400,
mini_blocks/2d_single_mini_block_0.xlsx,"*Break*
Entering the 2D SIMULTANEOUS block
Rotation is Counter/Clockwise
Press <4> to continue",0,1,0,2D,None,180,True,False,None,obj9,180,0,output_pairs/2D_180m/2D_180m_obj_9_180_to_0deg.png,None,1364,period,0,4,4,4,0,6,6,6,,,,,,,,,,,,,801.1121327000001,,,,,,,,,,,,,,,,,,,,,,,,,,,,,,,,,,,,,,,,,,,,,,,,,,,804.2706262000011,804.3027390999996,804.3027390999996,806.3031093999998,806.3031093999998,806.2736394000003,3.0,['slash'],[0.7025293999995483],[None],806.2737892999994,806.3031093999998,808.270432700001,808.3151338000007,,,,,,,,,,,,,,801.0706896000011,801.1121327000001,802.1030415000005,802.1030415000005,802.1364623000009,804.2704023000006,period,1,2.158533499999976,None,,,,,,,,,,,,,,,,,,,,,,,,,,,,,,,,,,,,,,,,,,,,,,,,,,,,,,011,001,2024-06-11_14h46.18.963,ps,2023.2.3,30.059267858368383,2024-06-11 14h46.30.085257 -0400,
mini_blocks/2d_single_mini_block_0.xlsx,"*Break*
Entering the 2D SIMULTANEOUS block
Rotation is Counter/Clockwise
Press <4> to continue",0,1,0,2D,None,180,False,False,None,obj1,160,340,output_pairs/2D_180/2D_180_obj_15_160_to_340deg.png,None,1073,comma,0,4,4,4,0,7,7,7,,,,,,,,,,,,,808.3151338000007,,,,,,,,,,,,,,,,,,,,,,,,,,,,,,,,,,,,,,,,,,,,,,,,,,,811.5707466000003,811.6026787999999,811.6026787999999,813.6031918000008,813.6031918000008,813.5739210000011,4.0,['rshift'],[0.3072139000014431],[None],813.5740638000007,813.6031918000008,815.5803990000004,,,,,,,,,,,,,,,808.2706214999998,808.3151338000007,809.2698297999996,809.2698297999996,809.3364928999999,811.5704311999998,comma,1,2.2808351000003313,None,,,,,,,,,,,,,,,,,,,,,,,,,,,,,,,,,,,,,,,,,,,,,,,,,,,,,,011,001,2024-06-11_14h46.18.963,ps,2023.2.3,30.059267858368383,2024-06-11 14h46.30.085257 -0400,
mini_blocks/2d_single_mini_block_0.xlsx,"*Break*
Entering the 2D SIMULTANEOUS block
Rotation is Counter/Clockwise
Press <4> to continue",0,1,0,2D,None,0,False,False,None,obj1,260,None,output_pairs/2D_0/2D_0_obj_10_260deg.png,None,2008,comma,0,4,4,4,0,8,8,8,,,,,,,,,,,,,815.6218162000005,,,,,,,,,,,,,,,,,,,,,,,,,,,,,,,,,,,,,,,,,,,,,,,,,,,818.0040055999998,818.0361228000002,818.0361228000002,820.0362511000003,820.0362511000003,820.0064662999994,4.0,['rshift'],[0.16935120000016468],[None],820.0066108999999,820.0362511000003,822.0076131000005,,,,,,,,,,,,,,,815.5805892999997,815.6218162000005,816.5698032,816.5698032,816.6365514999998,818.0037938999994,comma,1,1.4283285000001342,None,,,,,,,,,,,,,,,,,,,,,,,,,,,,,,,,,,,,,,,,,,,,,,,,,,,,,,011,001,2024-06-11_14h46.18.963,ps,2023.2.3,30.059267858368383,2024-06-11 14h46.30.085257 -0400,
mini_blocks/2d_single_mini_block_0.xlsx,"*Break*
Entering the 2D SIMULTANEOUS block
Rotation is Counter/Clockwise
Press <4> to continue",0,1,0,2D,None,0,True,False,None,obj1,140,None,output_pairs/2D_0m/2D_0m_obj_11_140deg.png,None,1136,period,0,4,4,4,0,9,9,9,,,,,,,,,,,,,822.0538611000011,,,,,,,,,,,,,,,,,,,,,,,,,,,,,,,,,,,,,,,,,,,,,,,,,,,824.4039553000002,824.436525000001,824.436525000001,826.436560600001,826.436560600001,826.4069689999997,4.0,['rshift'],[0.5218611000000237],[None],826.4071201999996,826.436560600001,828.4037060999999,828.4489162000009,,,,,,,,,,,,,,822.007801400001,822.0538611000011,823.0133165999996,823.0133165999996,823.0700338000006,824.4037417,period,1,1.3687474000016664,None,,,,,,,,,,,,,,,,,,,,,,,,,,,,,,,,,,,,,,,,,,,,,,,,,,,,,,011,001,2024-06-11_14h46.18.963,ps,2023.2.3,30.059267858368383,2024-06-11 14h46.30.085257 -0400,
mini_blocks/2d_single_mini_block_0.xlsx,"*Break*
Entering the 2D SIMULTANEOUS block
Rotation is Counter/Clockwise
Press <4> to continue",0,1,0,2D,None,60,False,False,None,sm3,240,300,output_pairs/2D_60/2D_60_SM3_240_to_300deg.png,None,945,comma,0,4,4,4,0,10,10,10,,,,,,,,,,,,,828.4489162000009,,,,,,,,,,,,,,,,,,,,,,,,,,,,,,,,,,,,,,,,,,,,,,,,,,,831.1375229999994,831.1699546,831.1699546,833.1697053999997,833.1697053999997,833.1404012000003,4.0,['rshift'],[0.2524115999985952],[None],833.1405532000008,833.1697053999997,835.1471875999996,,,,,,,,,,,,,,,828.4039054000004,828.4489162000009,829.4032845000002,829.4032845000002,829.4698368000008,831.1372964000002,comma,1,1.7063785000009375,None,,,,,,,,,,,,,,,,,,,,,,,,,,,,,,,,,,,,,,,,,,,,,,,,,,,,,,011,001,2024-06-11_14h46.18.963,ps,2023.2.3,30.059267858368383,2024-06-11 14h46.30.085257 -0400,
mini_blocks/2d_single_mini_block_0.xlsx,"*Break*
Entering the 2D SIMULTANEOUS block
Rotation is Counter/Clockwise
Press <4> to continue",0,1,0,2D,None,0,False,False,None,sm5,200,None,output_pairs/2D_0/2D_0_SM5_200deg.png,None,1994,comma,0,4,4,4,0,11,11,11,,,,,,,,,,,,,835.1962452999996,,,,,,,,,,,,,,,,,,,,,,,,,,,,,,,,,,,,,,,,,,,,,,,,,,,837.6711221000005,837.7131965999997,837.7131965999997,,,839.7049471000009,4.0,['rshift'],[0.2524212999996962],[None],839.7051047000004,839.7363985000011,841.6805127999996,,,,,,,,,,,,,,,835.1473638000007,835.1962452999996,836.1366385000001,836.1366385000001,836.2033044,837.6709135000001,comma,1,1.5006551000005857,None,,,,,,,,,,,,,,,,,,,,,,,,,,,,,,,,,,,,,,,,,,,,,,,,,,,,,,011,001,2024-06-11_14h46.18.963,ps,2023.2.3,30.059267858368383,2024-06-11 14h46.30.085257 -0400,
mini_blocks/2d_single_mini_block_0.xlsx,"*Break*
Entering the 2D SIMULTANEOUS block
Rotation is Counter/Clockwise
Press <4> to continue",0,1,0,2D,None,180,False,False,None,sm5,180,0,output_pairs/2D_180/2D_180_SM5_180_to_0deg.png,None,1080,comma,0,4,4,4,0,12,12,12,,,,,,,,,,,,,841.7486888000003,,,,,,,,,,,,,,,,,,,,,,,,,,,,,,,,,,,,,,,,,,,,,,,,,,,845.5705787000006,845.6031058000008,845.6031058000008,847.6034015000005,847.6034015000005,847.5738251000002,4.0,['rshift'],[1.0109793999999965],[None],847.5740065000009,847.6034015000005,849.5703383,849.6078811000007,,,,,,,,,,,,,,841.6806990999994,841.7486888000003,842.7035397,842.7035397,842.7700046000009,845.5703647000009,comma,1,2.863356500000009,None,,,,,,,,,,,,,,,,,,,,,,,,,,,,,,,,,,,,,,,,,,,,,,,,,,,,,,011,001,2024-06-11_14h46.18.963,ps,2023.2.3,30.059267858368383,2024-06-11 14h46.30.085257 -0400,
mini_blocks/2d_single_mini_block_0.xlsx,"*Break*
Entering the 2D SIMULTANEOUS block
Rotation is Counter/Clockwise
Press <4> to continue",0,1,0,2D,None,120,False,False,None,obj3,60,180,output_pairs/2D_120/2D_120_obj_3_60_to_180deg.png,None,1104,comma,0,4,4,4,0,13,13,13,,,,,,,,,,,,,849.6078811000007,,,,,,,,,,,,,,,,,,,,,,,,,,,,,,,,,,,,,,,,,,,,,,,,,,,853.6708629999994,853.7031351000005,853.7031351000005,855.7034000000003,855.7034000000003,855.6739292000002,4.0,['rshift'],[0.1906210999986797],[None],855.6740886999996,855.7034000000003,857.6704100000006,857.7171952000008,,,,,,,,,,,,,,849.5705392,849.6078811000007,850.5700445000002,850.5700445000002,850.6366830999996,853.6706539999996,comma,1,3.076179800000318,None,,,,,,,,,,,,,,,,,,,,,,,,,,,,,,,,,,,,,,,,,,,,,,,,,,,,,,011,001,2024-06-11_14h46.18.963,ps,2023.2.3,30.059267858368383,2024-06-11 14h46.30.085257 -0400,
mini_blocks/2d_single_mini_block_0.xlsx,"*Break*
Entering the 2D SIMULTANEOUS block
Rotation is Counter/Clockwise
Press <4> to continue",0,1,0,2D,None,0,True,False,None,obj1,300,None,output_pairs/2D_0m/2D_0m_obj_14_300deg.png,None,1124,period,0,4,4,4,0,14,14,14,,,,,,,,,,,,,857.7171952000008,,,,,,,,,,,,,,,,,,,,,,,,,,,,,,,,,,,,,,,,,,,,,,,,,,,860.0381572999995,860.0700708000004,860.0700708000004,862.0697018999999,862.0697018999999,862.0400000000009,4.0,['rshift'],[0.6883414999992965],[None],862.0401448000011,862.0697018999999,864.0373770000006,864.0843065999998,,,,,,,,,,,,,,857.6705846000004,857.7171952000008,858.6702236000001,858.6702236000001,858.7366892999999,860.0379475000009,period,1,1.3668661000010616,None,,,,,,,,,,,,,,,,,,,,,,,,,,,,,,,,,,,,,,,,,,,,,,,,,,,,,,011,001,2024-06-11_14h46.18.963,ps,2023.2.3,30.059267858368383,2024-06-11 14h46.30.085257 -0400,
mini_blocks/2d_single_mini_block_0.xlsx,"*Break*
Entering the 2D SIMULTANEOUS block
Rotation is Counter/Clockwise
Press <4> to continue",0,1,0,2D,None,180,True,False,None,sm2,180,0,output_pairs/2D_180m/2D_180m_SM2_180_to_0deg.png,None,1347,period,0,4,4,4,0,15,15,15,,,,,,,,,,,,,864.0843065999998,,,,,,,,,,,,,,,,,,,,,,,,,,,,,,,,,,,,,,,,,,,,,,,,,,,867.837693200001,867.8698067000005,867.8698067000005,869.8701738,869.8701738,869.8406507,2.0,['period'],[1.7444141000014497],[None],869.8407993000001,869.8701738,871.8372168000005,871.8701168999996,,,,,,,,,,,,,,864.037552400001,864.0843065999998,865.0367256000009,865.0367256000009,865.1138509000011,867.8374732000011,period,1,2.794146099999125,None,,,,,,,,,,,,,,,,,,,,,,,,,,,,,,,,,,,,,,,,,,,,,,,,,,,,,,011,001,2024-06-11_14h46.18.963,ps,2023.2.3,30.059267858368383,2024-06-11 14h46.30.085257 -0400,
mini_blocks/2d_single_mini_block_0.xlsx,"*Break*
Entering the 2D SIMULTANEOUS block
Rotation is Counter/Clockwise
Press <4> to continue",0,1,0,,,,,,,,,,,,,,0,4,4,4,,,,,,,,,,,,,,,,,,,,,,,,,,,,,,,,,,,,,,,,,,,,,,,,,,,,,,,,,,,,,,,,,,,,,,,,,,,,,,,,,,871.8437030000005,871.8701168999996,871.8701168999996,879.8404582000003,3.0,['slash'],[1.6324922000003426],[None],879.8406181000009,879.8406477999997,None,879.8699304000002,879.8699304000002,,,,,,,,,,,,,,,,,,,,,,,,,,,,,,,,,,,,,,,,,,,,,,,,,,,,,,,,,,,,,,,,011,001,2024-06-11_14h46.18.963,ps,2023.2.3,30.059267858368383,2024-06-11 14h46.30.085257 -0400,
mini_blocks/3dp_single_mini_block_3.xlsx,"*Break*
Entering the 3D SIMULTANEOUS block
Rotation is Counter/Clockwise
Press <4> to continue",0,1,0,3D,p,60,True,False,None,sm5,300,0,output_pairs/3Dp_60m/3Dp_60m_sm_5_300_to_0deg.png,None,852,period,0,5,5,5,0,0,0,0,,,,,,,,,,,,,885.0624786999997,,,,,,,,,,,,,,,,,,,,,,,,,,,,,,879.8408055,879.8699304000002,879.8699304000002,885.0043664999994,rshift,5.127798800000164,None,,,,,,,,,,,,,,,890.0718885000006,890.1035219000005,890.1035219000005,892.1036034000008,892.1036034000008,892.0740831000003,2.0,['period'],[1.0309930000003078],[None],892.0743223000009,892.1036034000008,894.0706900000005,894.1165679000005,,,,,,,,,,,,,,885.0213010000007,885.0624786999997,886.0367724999996,886.0367724999996,886.0701891999997,890.0714435000009,period,1,4.033824999998615,None,,,,,,,,,,,,,,,,,,,,,,,,,,,,,,,,,,,,,,,,,,,,,,,,,,,,,,011,001,2024-06-11_14h46.18.963,ps,2023.2.3,30.059267858368383,2024-06-11 14h46.30.085257 -0400,
mini_blocks/3dp_single_mini_block_3.xlsx,"*Break*
Entering the 3D SIMULTANEOUS block
Rotation is Counter/Clockwise
Press <4> to continue",0,1,0,3D,p,0,True,False,None,obj5,180,None,output_pairs/3Dp_0m/3Dp_0m_obj_5_180deg.png,None,1710,period,0,5,5,5,0,1,1,1,,,,,,,,,,,,,894.1165679000005,,,,,,,,,,,,,,,,,,,,,,,,,,,,,,,,,,,,,,,,,,,,,,,,,,,896.0379579,896.0701217999995,896.0701217999995,898.070272500001,898.070272500001,898.0407551999997,3.0,['slash'],[0.9521705000006477],[None],898.0409409000004,898.070272500001,900.0374938999994,900.074783600001,,,,,,,,,,,,,,894.0708759999998,894.1165679000005,895.0702835000011,895.0702835000011,895.146609200001,896.0377466999998,period,1,0.9598876000000018,None,,,,,,,,,,,,,,,,,,,,,,,,,,,,,,,,,,,,,,,,,,,,,,,,,,,,,,011,001,2024-06-11_14h46.18.963,ps,2023.2.3,30.059267858368383,2024-06-11 14h46.30.085257 -0400,
mini_blocks/3dp_single_mini_block_3.xlsx,"*Break*
Entering the 3D SIMULTANEOUS block
Rotation is Counter/Clockwise
Press <4> to continue",0,1,0,3D,p,120,True,False,None,obj1,320,80,output_pairs/3Dp_120m/3Dp_120m_obj_13_320_to_80deg.png,None,2129,period,0,5,5,5,0,2,2,2,,,,,,,,,,,,,900.074783600001,,,,,,,,,,,,,,,,,,,,,,,,,,,,,,,,,,,,,,,,,,,,,,,,,,,904.771395400001,904.8035534999999,904.8035534999999,906.8032125000009,906.8032125000009,906.774222,2.0,['period'],[1.1140998000009859],[None],906.7743773000002,906.8032125000009,908.7704343000005,908.8170518999996,,,,,,,,,,,,,,900.0376699000008,900.074783600001,901.0368975000001,901.0368975000001,901.1037268,904.7711878000009,period,1,3.721756099999766,None,,,,,,,,,,,,,,,,,,,,,,,,,,,,,,,,,,,,,,,,,,,,,,,,,,,,,,011,001,2024-06-11_14h46.18.963,ps,2023.2.3,30.059267858368383,2024-06-11 14h46.30.085257 -0400,
mini_blocks/3dp_single_mini_block_3.xlsx,"*Break*
Entering the 3D SIMULTANEOUS block
Rotation is Counter/Clockwise
Press <4> to continue",0,1,0,3D,p,120,False,False,None,obj7,160,280,output_pairs/3Dp_120/3Dp_120_obj_7_160_to_280deg.png,None,708,comma,0,5,5,5,0,3,3,3,,,,,,,,,,,,,908.8170518999996,,,,,,,,,,,,,,,,,,,,,,,,,,,,,,,,,,,,,,,,,,,,,,,,,,,912.9711253999994,913.0031686000002,913.0031686000002,915.0036765999994,915.0036765999994,914.9741171999995,2.0,['period'],[1.523001399998975],[None],914.9742643000009,915.0036765999994,916.9708721999996,917.0164389000001,,,,,,,,,,,,,,908.7706158000001,908.8170518999996,909.7703965000001,909.7703965000001,909.8409807999997,912.9709132000007,comma,1,3.1968484000008175,None,,,,,,,,,,,,,,,,,,,,,,,,,,,,,,,,,,,,,,,,,,,,,,,,,,,,,,011,001,2024-06-11_14h46.18.963,ps,2023.2.3,30.059267858368383,2024-06-11 14h46.30.085257 -0400,
mini_blocks/3dp_single_mini_block_3.xlsx,"*Break*
Entering the 3D SIMULTANEOUS block
Rotation is Counter/Clockwise
Press <4> to continue",0,1,0,3D,p,120,False,False,None,obj2,280,40,output_pairs/3Dp_120/3Dp_120_obj_2_280_to_40deg.png,None,729,comma,0,5,5,5,0,4,4,4,,,,,,,,,,,,,917.0164389000001,,,,,,,,,,,,,,,,,,,,,,,,,,,,,,,,,,,,,,,,,,,,,,,,,,,921.4713850999997,921.5036990000008,921.5036990000008,923.5037129000011,923.5037129000011,923.4742776000003,2.0,['period'],[0.7827118000004702],[None],923.4744224999995,923.5037129000011,925.4746419000003,,,,,,,,,,,,,,,916.9711370000005,917.0164389000001,917.9702634999994,917.9702634999994,918.0370314000011,921.4711791999998,period,0,3.4927702999993926,None,,,,,,,,,,,,,,,,,,,,,,,,,,,,,,,,,,,,,,,,,,,,,,,,,,,,,,011,001,2024-06-11_14h46.18.963,ps,2023.2.3,30.059267858368383,2024-06-11 14h46.30.085257 -0400,
mini_blocks/3dp_single_mini_block_3.xlsx,"*Break*
Entering the 3D SIMULTANEOUS block
Rotation is Counter/Clockwise
Press <4> to continue",0,1,0,3D,p,180,False,False,None,obj1,40,220,output_pairs/3Dp_180/3Dp_180_obj_1_40_to_220deg.png,None,748,comma,0,5,5,5,0,5,5,5,,,,,,,,,,,,,925.5218354999997,,,,,,,,,,,,,,,,,,,,,,,,,,,,,,,,,,,,,,,,,,,,,,,,,,,928.3044983,928.336573300001,928.336573300001,930.3370974000009,930.3370974000009,930.3072821000005,2.0,['period'],[0.7010682000000088],[None],930.3074754000008,930.3370974000009,932.3043796000002,932.3508855,,,,,,,,,,,,,,925.4748187000005,925.5218354999997,926.4703019000008,926.4703019000008,926.5370798000004,928.304284400001,period,0,1.8155678000002808,None,,,,,,,,,,,,,,,,,,,,,,,,,,,,,,,,,,,,,,,,,,,,,,,,,,,,,,011,001,2024-06-11_14h46.18.963,ps,2023.2.3,30.059267858368383,2024-06-11 14h46.30.085257 -0400,
mini_blocks/3dp_single_mini_block_3.xlsx,"*Break*
Entering the 3D SIMULTANEOUS block
Rotation is Counter/Clockwise
Press <4> to continue",0,1,0,3D,p,180,False,False,None,sm4,280,100,output_pairs/3Dp_180/3Dp_180_sm_4_280_to_100deg.png,None,761,comma,0,5,5,5,0,6,6,6,,,,,,,,,,,,,932.3508855,,,,,,,,,,,,,,,,,,,,,,,,,,,,,,,,,,,,,,,,,,,,,,,,,,,939.3714226000011,939.4037905999994,939.4037905999994,941.4033275000002,941.4033275000002,941.3742782999998,2.0,['period'],[1.0505809000005684],[None],941.3744447000008,941.4033275000002,943.3709923000006,943.4252355000008,,,,,,,,,,,,,,932.304568900001,932.3508855,933.303665200001,933.303665200001,933.3703358000002,939.3712185000004,period,0,6.055132299999968,None,,,,,,,,,,,,,,,,,,,,,,,,,,,,,,,,,,,,,,,,,,,,,,,,,,,,,,011,001,2024-06-11_14h46.18.963,ps,2023.2.3,30.059267858368383,2024-06-11 14h46.30.085257 -0400,
mini_blocks/3dp_single_mini_block_3.xlsx,"*Break*
Entering the 3D SIMULTANEOUS block
Rotation is Counter/Clockwise
Press <4> to continue",0,1,0,3D,p,60,True,False,None,obj1,140,200,output_pairs/3Dp_60m/3Dp_60m_obj_10_140_to_200deg.png,None,859,period,0,5,5,5,0,7,7,7,,,,,,,,,,,,,943.4252355000008,,,,,,,,,,,,,,,,,,,,,,,,,,,,,,,,,,,,,,,,,,,,,,,,,,,950.6381643000004,950.670492700001,950.670492700001,952.6700297000007,952.6700297000007,952.6405907999997,2.0,['period'],[0.5048687999988033],[None],952.6407381000008,952.6700297000007,954.6377637999994,954.6762959000007,,,,,,,,,,,,,,943.3711624999996,943.4252355000008,944.3806863999998,944.3806863999998,944.4465543000006,950.6379560999994,period,1,6.233787900000607,None,,,,,,,,,,,,,,,,,,,,,,,,,,,,,,,,,,,,,,,,,,,,,,,,,,,,,,011,001,2024-06-11_14h46.18.963,ps,2023.2.3,30.059267858368383,2024-06-11 14h46.30.085257 -0400,
mini_blocks/3dp_single_mini_block_3.xlsx,"*Break*
Entering the 3D SIMULTANEOUS block
Rotation is Counter/Clockwise
Press <4> to continue",0,1,0,3D,p,120,False,False,None,obj8,300,60,output_pairs/3Dp_120/3Dp_120_obj_8_300_to_60deg.png,None,707,comma,0,5,5,5,0,8,8,8,,,,,,,,,,,,,954.6762959000007,,,,,,,,,,,,,,,,,,,,,,,,,,,,,,,,,,,,,,,,,,,,,,,,,,,958.7715666000004,958.8038827,958.8038827,960.8033206,960.8033206,960.7737080999996,2.0,['period'],[0.8988248999994539],[None],960.7739012000002,960.8033206,962.7750933999996,,,,,,,,,,,,,,,954.6379354000001,954.6762959000007,955.6372532999994,955.6372532999994,955.7039141999994,958.7713633000003,period,0,3.1288273999998637,None,,,,,,,,,,,,,,,,,,,,,,,,,,,,,,,,,,,,,,,,,,,,,,,,,,,,,,011,001,2024-06-11_14h46.18.963,ps,2023.2.3,30.059267858368383,2024-06-11 14h46.30.085257 -0400,
mini_blocks/3dp_single_mini_block_3.xlsx,"*Break*
Entering the 3D SIMULTANEOUS block
Rotation is Counter/Clockwise
Press <4> to continue",0,1,0,3D,p,120,False,False,None,obj7,300,60,output_pairs/3Dp_120/3Dp_120_obj_7_300_to_60deg.png,None,715,comma,0,5,5,5,0,9,9,9,,,,,,,,,,,,,962.8132888,,,,,,,,,,,,,,,,,,,,,,,,,,,,,,,,,,,,,,,,,,,,,,,,,,,966.4048081000001,966.4370428000002,966.4370428000002,968.4373152999997,968.4373152999997,968.4076879000004,3.0,['slash'],[1.168443099999422],[None],968.4078766000002,968.4373152999997,970.4043394,970.4508447999997,,,,,,,,,,,,,,962.7752842999998,962.8132888,963.7810174999995,963.7810174999995,963.8133851000002,966.4045967000002,comma,1,2.592885000000024,None,,,,,,,,,,,,,,,,,,,,,,,,,,,,,,,,,,,,,,,,,,,,,,,,,,,,,,011,001,2024-06-11_14h46.18.963,ps,2023.2.3,30.059267858368383,2024-06-11 14h46.30.085257 -0400,
mini_blocks/3dp_single_mini_block_3.xlsx,"*Break*
Entering the 3D SIMULTANEOUS block
Rotation is Counter/Clockwise
Press <4> to continue",0,1,0,3D,p,0,False,False,None,obj1,40,None,output_pairs/3Dp_0/3Dp_0_obj_13_40deg.png,None,2153,comma,0,5,5,5,0,10,10,10,,,,,,,,,,,,,970.4508447999997,,,,,,,,,,,,,,,,,,,,,,,,,,,,,,,,,,,,,,,,,,,,,,,,,,,972.904833300001,972.9369299000009,972.9369299000009,974.9372165000004,974.9372165000004,974.9076292000009,4.0,['rshift'],[0.22960890000103973],[None],974.9077759000011,974.9372165000004,976.9045796999999,976.9509747000011,,,,,,,,,,,,,,970.4045102,970.4508447999997,971.4038767000002,971.4038767000002,971.4800873000004,972.9046048,comma,1,1.4906097999992198,None,,,,,,,,,,,,,,,,,,,,,,,,,,,,,,,,,,,,,,,,,,,,,,,,,,,,,,011,001,2024-06-11_14h46.18.963,ps,2023.2.3,30.059267858368383,2024-06-11 14h46.30.085257 -0400,
mini_blocks/3dp_single_mini_block_3.xlsx,"*Break*
Entering the 3D SIMULTANEOUS block
Rotation is Counter/Clockwise
Press <4> to continue",0,1,0,3D,p,120,False,False,None,sm5,200,320,output_pairs/3Dp_120/3Dp_120_sm_5_200_to_320deg.png,None,724,comma,0,5,5,5,0,11,11,11,,,,,,,,,,,,,976.9509747000011,,,,,,,,,,,,,,,,,,,,,,,,,,,,,,,,,,,,,,,,,,,,,,,,,,,983.1716080000006,983.2040698000001,983.2040698000001,985.2036824000006,985.2036824000006,985.1743239000007,2.0,['period'],[1.4422240000003512],[None],985.1745301999999,985.2036824000006,987.1711348000008,987.2183275000007,,,,,,,,,,,,,,976.9047537000006,976.9509747000011,977.9038818000008,977.9038818000008,977.9705721000009,983.1713973000005,comma,1,5.238358900000094,None,,,,,,,,,,,,,,,,,,,,,,,,,,,,,,,,,,,,,,,,,,,,,,,,,,,,,,011,001,2024-06-11_14h46.18.963,ps,2023.2.3,30.059267858368383,2024-06-11 14h46.30.085257 -0400,
mini_blocks/3dp_single_mini_block_3.xlsx,"*Break*
Entering the 3D SIMULTANEOUS block
Rotation is Counter/Clockwise
Press <4> to continue",0,1,0,3D,p,120,True,False,None,obj1,220,340,output_pairs/3Dp_120m/3Dp_120m_obj_11_220_to_340deg.png,None,2121,period,0,5,5,5,0,12,12,12,,,,,,,,,,,,,987.2183275000007,,,,,,,,,,,,,,,,,,,,,,,,,,,,,,,,,,,,,,,,,,,,,,,,,,,992.471565400001,992.5036670999998,992.5036670999998,994.5039718000007,994.5039718000007,994.4751897999995,2.0,['period'],[0.8382899000007455],[None],994.4753342000004,994.5039718000007,996.4711802000002,996.516818600001,,,,,,,,,,,,,,987.1713135000009,987.2183275000007,988.1707542000004,988.1707542000004,988.2374285000005,992.4713520999994,period,1,4.283238300000448,None,,,,,,,,,,,,,,,,,,,,,,,,,,,,,,,,,,,,,,,,,,,,,,,,,,,,,,011,001,2024-06-11_14h46.18.963,ps,2023.2.3,30.059267858368383,2024-06-11 14h46.30.085257 -0400,
mini_blocks/3dp_single_mini_block_3.xlsx,"*Break*
Entering the 3D SIMULTANEOUS block
Rotation is Counter/Clockwise
Press <4> to continue",0,1,0,3D,p,180,True,False,None,sm1,340,160,output_pairs/3Dp_180m/3Dp_180m_sm_1_340_to_160deg.png,None,2033,period,0,5,5,5,0,13,13,13,,,,,,,,,,,,,996.516818600001,,,,,,,,,,,,,,,,,,,,,,,,,,,,,,,,,,,,,,,,,,,,,,,,,,,1002.6717659999995,1002.7041496000002,1002.7041496000002,1004.703611500001,1004.703611500001,1004.6747799999994,3.0,['slash'],[0.9580653000011807],[None],1004.6749491999999,1004.703611500001,1006.6751807,,,,,,,,,,,,,,,996.4713456000009,996.516818600001,997.4811726999997,997.4811726999997,997.5474310000009,1002.6715598999999,period,1,5.17334320000009,None,,,,,,,,,,,,,,,,,,,,,,,,,,,,,,,,,,,,,,,,,,,,,,,,,,,,,,011,001,2024-06-11_14h46.18.963,ps,2023.2.3,30.059267858368383,2024-06-11 14h46.30.085257 -0400,
mini_blocks/3dp_single_mini_block_3.xlsx,"*Break*
Entering the 3D SIMULTANEOUS block
Rotation is Counter/Clockwise
Press <4> to continue",0,1,0,3D,p,0,True,False,None,sm1,300,None,output_pairs/3Dp_0m/3Dp_0m_sm_1_300deg.png,None,1702,period,0,5,5,5,0,14,14,14,,,,,,,,,,,,,1006.7216396000003,,,,,,,,,,,,,,,,,,,,,,,,,,,,,,,,,,,,,,,,,,,,,,,,,,,1010.5723201000001,1010.604107000001,1010.604107000001,1012.6041643999997,1012.6041643999997,1012.5746273000004,3.0,['slash'],[0.5700904999994236],[None],1012.5747737000002,1012.6041643999997,1014.5712349000005,1014.6085567000009,,,,,,,,,,,,,,1006.6753707000007,1006.7216396000003,1007.6812396999994,1007.6812396999994,1007.7471509999996,1010.5721130000002,period,1,2.8852769999994052,None,,,,,,,,,,,,,,,,,,,,,,,,,,,,,,,,,,,,,,,,,,,,,,,,,,,,,,011,001,2024-06-11_14h46.18.963,ps,2023.2.3,30.059267858368383,2024-06-11 14h46.30.085257 -0400,
mini_blocks/3dp_single_mini_block_3.xlsx,"*Break*
Entering the 3D SIMULTANEOUS block
Rotation is Counter/Clockwise
Press <4> to continue",0,1,0,3D,p,120,True,False,None,obj1,220,340,output_pairs/3Dp_120m/3Dp_120m_obj_11_220_to_340deg.png,None,2121,period,0,5,5,5,0,15,15,15,,,,,,,,,,,,,1014.6085567000009,,,,,,,,,,,,,,,,,,,,,,,,,,,,,,,,,,,,,,,,,,,,,,,,,,,1019.5386787000007,1019.570786100001,1019.570786100001,1021.5703591000001,1021.5703591000001,1021.5409103000002,3.0,['slash'],[0.9152821999996377],[None],1021.5410614000011,1021.5703591000001,1023.5382002999995,1023.5704537000001,,,,,,,,,,,,,,1014.5714098999997,1014.6085567000009,1015.6145610000003,1015.6145610000003,1015.6145610000003,1019.5384606999996,period,1,3.92020390000107,None,,,,,,,,,,,,,,,,,,,,,,,,,,,,,,,,,,,,,,,,,,,,,,,,,,,,,,011,001,2024-06-11_14h46.18.963,ps,2023.2.3,30.059267858368383,2024-06-11 14h46.30.085257 -0400,
mini_blocks/3dp_single_mini_block_3.xlsx,"*Break*
Entering the 3D SIMULTANEOUS block
Rotation is Counter/Clockwise
Press <4> to continue",0,1,0,,,,,,,,,,,,,,0,5,5,5,,,,,,,,,,,,,,,,,,,,,,,,,,,,,,,,,,,,,,,,,,,,,,,,,,,,,,,,,,,,,,,,,,,,,,,,,,,,,,,,,,1023.5542361000007,1023.5704537000001,1023.5704537000001,1031.5416380000006,3.0,['slash'],[1.0516284000004816],[None],1031.541799300001,1031.5418298000004,None,1031.5704490000007,1031.5704490000007,,,,,,,,,,,,,,,,,,,,,,,,,,,,,,,,,,,,,,,,,,,,,,,,,,,,,,,,,,,,,,,,011,001,2024-06-11_14h46.18.963,ps,2023.2.3,30.059267858368383,2024-06-11 14h46.30.085257 -0400,
mini_blocks/2d_wm_mini_block_2.xlsx,"*Break*
Entering the 2D WORKING MEMORY block
Rotation is Counter/Clockwise
Press <4> to continue
               ",1,0,0,2D,None,180,True,True,5,obj3,0,180,output_pairs/2D_180_M_WM/2D_180_M_WM_05_1_obj_3_0deg.png,output_pairs/2D_180_M_WM/2D_180_M_WM_05_2_obj_3_180deg.png,416,period,0,6,6,6,,,,,0,0,0,0,,,,,,,,,1032.5740913999998,,,,,,,,,,,,,,,,,,,,,,,,,,,,,,1031.5419660999996,1031.5704490000007,1031.5704490000007,1032.5048115000009,rshift,0.9168585999996139,None,1032.517414,1032.5740913999998,1033.5085421000003,1033.5710473,1037.5372606,1037.5039742000008,1038.5043244999997,1038.5043244999997,1038.5043244999997,1043.1385690999996,period,1,4.629946499999278,None,1043.1388704,1043.1709824999998,1043.1709824999998,,,1045.1496150000003,2.0,['period'],[1.1395968000015273],[None],1045.1498558000003,1045.1814405999994,1047.1481060000006,,,,,,,,,,,,,,,,,,,,,,,,,,,,,,,,,,,,,,,,,,,,,,,,,,,,,,,,,,,,,,,,,,,,,,,,,,,,,,011,001,2024-06-11_14h46.18.963,ps,2023.2.3,30.059267858368383,2024-06-11 14h46.30.085257 -0400,
mini_blocks/2d_wm_mini_block_2.xlsx,"*Break*
Entering the 2D WORKING MEMORY block
Rotation is Counter/Clockwise
Press <4> to continue
